timestamp,ref_timestamp,ref_lat,ref_lon,x,y,z,delta_xy[0],delta_xy[1],delta_z,vx,vy,vz,z_deriv,delta_vxy[0],delta_vxy[1],delta_vz,ax,ay,az,yaw,ref_alt,dist_bottom,eph,epv,evh,evv,vxy_max,vz_max,hagl_min,hagl_max,xy_valid,z_valid,v_xy_valid,v_z_valid,xy_reset_counter,z_reset_counter,vxy_reset_counter,vz_reset_counter,xy_global,z_global,dist_bottom_valid
72426776,15961736,32.387893700000006,-117.0745242,-0.15307687,-0.60742366,2.0612285,0.0075267805,0.009844232,0.0,-0.0153797865,0.008006036,-0.028241418,-0.080836944,0.091324784,0.04797906,-0.06365676,0.1686173,0.115732744,-0.037929244,-0.19993307,21.878475,0.1,0.3600619,0.24508287,0.16526355,0.10397673,inf,inf,inf,inf,1,1,1,1,2,0,2,2,1,1,1
72524067,15961736,32.387893700000006,-117.0745242,-0.15610333,-0.6074294,2.0475667,0.0075267805,0.009844232,0.0,-0.017289395,0.0016296209,-0.038354527,-0.09541307,0.091324784,0.04797906,-0.06365676,-0.0051948596,-0.2538904,-0.012847349,-0.20042054,21.878475,0.1,0.37181905,0.24545301,0.17006814,0.1043834,inf,inf,inf,inf,1,1,1,1,2,0,2,2,1,1,1
72631800,15961736,32.387893700000006,-117.0745242,-0.15935874,-0.60757256,2.0259109,0.0075267805,0.009844232,0.0,-0.018778168,0.0036948032,-0.04452344,-0.1108788,0.091324784,0.04797906,-0.06365676,0.07342245,-0.19155332,0.041018818,-0.2004341,21.878475,0.1,0.36117783,0.24380273,0.16597484,0.103678524,inf,inf,inf,inf,1,1,1,1,2,0,2,2,1,1,1
72728801,15961736,32.387893700000006,-117.0745242,-0.16192919,-0.6075306,1.9961984,0.0075267805,0.009844232,0.0,-0.022608496,0.0044539887,-0.053885765,-0.13733217,0.091324784,0.04797906,-0.06365676,-0.052770846,0.09307423,-0.10299935,-0.20086056,21.878475,0.1,0.37311625,0.244244,0.17076924,0.10409235,inf,inf,inf,inf,1,1,1,1,2,0,2,2,1,1,1
72826805,15961736,32.387893700000006,-117.0745242,-0.1640355,-0.6074237,1.9657973,0.0075267805,0.009844232,0.0,-0.023233086,0.0033109628,-0.060057282,-0.15777881,0.091324784,0.04797906,-0.06365676,0.1524093,-0.12340702,0.13949294,-0.20129795,21.878475,0.1,0.3611749,0.24362563,0.16581546,0.103641585,inf,inf,inf,inf,1,1,1,1,2,0,2,2,1,1,1
72933813,15961736,32.387893700000006,-117.0745242,-0.163486,-0.6076289,1.9398406,0.0075267805,0.009844232,0.0,-0.022130696,0.0068049626,-0.06677866,-0.17159747,0.091324784,0.04797906,-0.06365676,0.040485777,-0.08137976,-0.1048623,-0.20163642,21.878475,0.1,0.37361115,0.24439025,0.17059794,0.10421291,inf,inf,inf,inf,1,1,1,1,2,0,2,2,1,1,1
73030816,15961736,32.387893700000006,-117.0745242,-0.16376188,-0.60745853,1.9179388,0.0075267805,0.009844232,0.0,-0.021821458,0.00259662,-0.07313338,-0.18076947,0.091324784,0.04797906,-0.06365676,0.034146674,0.026925415,-0.020894624,-0.20182438,21.878475,0.1,0.3604591,0.24488096,0.16553673,0.10400985,inf,inf,inf,inf,1,1,1,1,2,0,2,2,1,1,1
73138801,15961736,32.387893700000006,-117.0745242,-0.16453521,-0.6074274,1.8833728,0.0075267805,0.009844232,0.0,-0.024649862,0.0053192386,-0.082096316,-0.20192985,0.091324784,0.04797906,-0.06365676,0.15367053,-0.0670637,0.011210182,-0.20201322,21.878475,0.1,0.3733804,0.244141,0.17045894,0.104159415,inf,inf,inf,inf,1,1,1,1,2,0,2,2,1,1,1
73235933,15961736,32.387893700000006,-117.0745242,-0.16518177,-0.6068152,1.8570305,0.0075267805,0.009844232,0.0,-0.02866862,0.008024018,-0.087932326,-0.21115626,0.091324784,0.04797906,-0.06365676,-0.17538291,0.18361749,-0.15564635,-0.20224905,21.878475,0.1,0.36168772,0.24367939,0.16620944,0.1037177,inf,inf,inf,inf,1,1,1,1,2,0,2,2,1,1,1
73342801,15961736,32.387893700000006,-117.0745242,-0.16587077,-0.6055906,1.8291403,0.0075267805,0.009844232,0.0,-0.027766839,0.009526415,-0.091947995,-0.21716061,0.091324784,0.04797906,-0.06365676,-0.2456555,0.23360796,-0.09709737,-0.20249404,21.878475,0.1,0.37478346,0.24481678,0.17168336,0.104308285,inf,inf,inf,inf,1,1,1,1,2,0,2,2,1,1,1
73440716,15961736,32.387893700000006,-117.0745242,-0.16758858,-0.60475254,1.807482,0.0075267805,0.009844232,0.0,-0.02906297,0.011879687,-0.096176066,-0.21915388,0.091324784,0.04797906,-0.06365676,0.349009,-0.016399499,0.15554114,-0.20282036,21.878475,0.12239611,0.3615725,0.24522793,0.16660963,0.10409748,inf,inf,inf,inf,1,1,1,1,2,0,2,2,1,1,1
73542716,15961736,32.387893700000006,-117.0745242,-0.17060453,-0.6056199,1.7939336,0.0075267805,0.009844232,0.0,-0.030376686,0.010288559,-0.101057604,-0.2124599,0.091324784,0.04797906,-0.06365676,0.2313592,0.0027385352,-0.0910441,-0.20310797,21.878475,0.1277858,0.37443686,0.24436942,0.17180745,0.10422579,inf,inf,inf,inf,1,1,1,1,2,0,2,2,1,1,1
73645713,15961736,32.387893700000006,-117.0745242,-0.1735594,-0.60695875,1.780767,0.0075267805,0.009844232,0.0,-0.035188705,0.008614067,-0.102776945,-0.20344321,0.091324784,0.04797906,-0.06365676,0.03772553,0.075698614,-0.23789276,-0.20349821,21.878475,0.15520537,0.36273232,0.24400473,0.16706738,0.10380184,inf,inf,inf,inf,1,1,1,1,2,0,2,2,1,1,1
73742730,15961736,32.387893700000006,-117.0745242,-0.1764791,-0.60943276,1.7811755,0.0075267805,0.009844232,0.0,-0.035042793,0.004010475,-0.10065331,-0.17983544,0.091324784,0.04797906,-0.06365676,-0.00045353704,0.020134665,-0.13274895,-0.20356445,21.878475,0.17110693,0.3746291,0.24435464,0.17174308,0.104211114,inf,inf,inf,inf,1,1,1,1,2,0,2,2,1,1,1
73851725,15961736,32.387893700000006,-117.0745242,-0.179736,-0.6119227,1.7807233,0.0075267805,0.009844232,0.0,-0.036341067,0.004375858,-0.098335244,-0.15809922,0.091324784,0.04797906,-0.06365676,-0.074247465,0.16591017,-0.06993702,-0.20400362,21.878475,0.13276792,0.36261857,0.24381611,0.16714634,0.10376295,inf,inf,inf,inf,1,1,1,1,2,0,2,2,1,1,1
73947852,15961736,32.387893700000006,-117.0745242,-0.18180439,-0.6145889,1.7691468,0.0075267805,0.009844232,0.0,-0.037069537,0.0061821644,-0.10073365,-0.15613155,0.091324784,0.04797906,-0.06365676,0.07149219,-0.15138885,0.023914946,-0.20403826,21.878475,0.10409653,0.37453896,0.2441829,0.17155503,0.104172826,inf,inf,inf,inf,1,1,1,1,2,0,2,2,1,1,1
74054739,15961736,32.387893700000006,-117.0745242,-0.18687771,-0.6163553,1.7337677,0.0075267805,0.009844232,0.0,-0.06426466,0.01214247,-0.11292639,-0.18506181,0.091324784,0.04797906,-0.06365676,0.025125952,0.025875708,0.20418577,-0.20463751,21.878475,0.1,0.36376137,0.2443561,0.16774926,0.10391603,inf,inf,inf,inf,1,1,1,1,2,0,2,2,1,1,1
74151733,15961736,32.387893700000006,-117.0745242,-0.1930154,-0.61671185,1.6913491,0.0075267805,0.009844232,0.0,-0.060949057,0.016667964,-0.12051389,-0.21442011,0.091324784,0.04797906,-0.06365676,0.3127242,0.40822086,0.45499396,-0.20495518,21.878475,0.1,0.37587896,0.24479964,0.17276177,0.1043179,inf,inf,inf,inf,1,1,1,1,2,0,2,2,1,1,1
74254801,15961736,32.387893700000006,-117.0745242,-0.19804618,-0.61790025,1.6380013,0.0075267805,0.009844232,0.0,-0.062315986,0.01563407,-0.13132556,-0.2542689,0.091324784,0.04797906,-0.06365676,0.6366787,0.4221468,0.34277007,-0.2053204,21.878475,0.1,0.36369395,0.2441193,0.16768986,0.1038643,inf,inf,inf,inf,1,1,1,1,2,0,2,2,1,1,1
74356828,15961736,32.387893700000006,-117.0745242,-0.20332009,-0.62051904,1.5886664,0.0075267805,0.009844232,0.0,-0.06146371,0.014623116,-0.14624153,-0.28972644,0.091324784,0.04797906,-0.06365676,0.80979973,0.19967046,0.39536452,-0.20544885,21.878475,0.1,0.37529528,0.24424279,0.17226106,0.104234256,inf,inf,inf,inf,1,1,1,1,2,0,2,2,1,1,1
74454807,15961736,32.387893700000006,-117.0745242,-0.20699464,-0.623213,1.544318,0.0075267805,0.009844232,0.0,-0.06470884,0.0178949,-0.16225062,-0.31914523,0.091324784,0.04797906,-0.06365676,-0.9174146,-0.36312863,-0.21091321,-0.2053975,21.878475,0.1,0.36262795,0.24506405,0.16722046,0.10407746,inf,inf,inf,inf,1,1,1,1,2,0,2,2,1,1,1
74561768,15961736,32.387893700000006,-117.0745242,-0.2092272,-0.627678,1.4984561,0.0075267805,0.009844232,0.0,-0.055541098,0.017577928,-0.16923453,-0.33366498,0.091324784,0.04797906,-0.06365676,-0.2933968,-0.20664063,0.24693064,-0.20582682,21.878475,0.1,0.37646422,0.24477962,0.17263858,0.104382604,inf,inf,inf,inf,1,1,1,1,2,0,2,2,1,1,1
74660731,15961736,32.387893700000006,-117.0745242,-0.21072982,-0.6311676,1.4668751,0.0075267805,0.009844232,0.0,-0.05371738,0.0151871415,-0.17546228,-0.33633927,0.091324784,0.04797906,-0.06365676,-0.41140017,-0.033275105,-0.21042176,-0.20614186,21.878475,0.12012243,0.36386338,0.24384691,0.1674875,0.103791475,inf,inf,inf,inf,1,1,1,1,2,0,2,2,1,1,1
74765973,15961736,32.387893700000006,-117.0745242,-0.21224144,-0.6349273,1.4300538,0.0075267805,0.009844232,0.0,-0.050245665,0.012935794,-0.17654954,-0.33536956,0.091324784,0.04797906,-0.06365676,0.2719782,0.012362811,-0.019613218,-0.20668745,21.878475,0.112485886,0.3777723,0.24542567,0.17273481,0.104566745,inf,inf,inf,inf,1,1,1,1,2,0,2,2,1,1,1
74863864,15961736,32.387893700000006,-117.0745242,-0.21449153,-0.63897234,1.3889483,0.0075267805,0.009844232,0.0,-0.051666845,0.0063561043,-0.1896796,-0.35294697,0.091324784,0.04797906,-0.06365676,0.26421797,-0.092713825,-0.07232289,-0.20663589,21.878475,0.12734509,0.364987,0.24437758,0.16777425,0.103948,inf,inf,inf,inf,1,1,1,1,2,0,2,2,1,1,1
74960722,15961736,32.387893700000006,-117.0745242,-0.21680377,-0.6430927,1.3554713,0.0075267805,0.009844232,0.0,-0.054349728,0.01143973,-0.1995629,-0.36053208,0.091324784,0.04797906,-0.06365676,-0.1536678,-0.177858,0.11733978,-0.20684251,21.878475,0.1160841,0.37651798,0.24443087,0.17242073,0.10431364,inf,inf,inf,inf,1,1,1,1,2,0,2,2,1,1,1
75068742,15961736,32.387893700000006,-117.0745242,-0.21774513,-0.6471384,1.3132511,0.0075267805,0.009844232,0.0,-0.047404204,0.015503823,-0.20768847,-0.3688669,0.091324784,0.04797906,-0.06365676,-0.26511657,-0.24979748,-0.55142254,-0.20691629,21.878475,0.12814641,0.3657391,0.24475293,0.16826205,0.10407091,inf,inf,inf,inf,1,1,1,1,2,0,2,2,1,1,1
75175713,15961736,32.387893700000006,-117.0745242,-0.21792787,-0.6495535,1.2671275,0.0075267805,0.009844232,0.0,-0.04205236,0.02009789,-0.21593064,-0.38245517,0.091324784,0.04797906,-0.06365676,0.33054486,0.31855834,-0.22999108,-0.20701815,21.878475,0.10625553,0.37886146,0.24576467,0.17305562,0.10465787,inf,inf,inf,inf,1,1,1,1,2,0,2,2,1,1,1
75272745,15961736,32.387893700000006,-117.0745242,-0.21754092,-0.65078604,1.2252951,0.0075267805,0.009844232,0.0,-0.039520577,0.024771966,-0.22644743,-0.3951754,0.091324784,0.04797906,-0.06365676,-0.18394606,-0.4975721,-0.089235924,-0.20688988,21.878475,0.10507047,0.36548695,0.24440831,0.16780612,0.10401789,inf,inf,inf,inf,1,1,1,1,2,0,2,2,1,1,1
75375814,15961736,32.387893700000006,-117.0745242,-0.2176763,-0.6520533,1.1809623,0.0075267805,0.009844232,0.0,-0.0417471,0.015805917,-0.23293182,-0.40375024,0.091324784,0.04797906,-0.06365676,0.084517345,-0.8543109,0.058096863,-0.2068339,21.878475,0.122813225,0.3788012,0.24556366,0.17285216,0.104624264,inf,inf,inf,inf,1,1,1,1,2,0,2,2,1,1,1
75477852,15961736,32.387893700000006,-117.0745242,-0.21835846,-0.65459657,1.1324437,0.0075267805,0.009844232,0.0,-0.04084148,0.01469693,-0.23404936,-0.41052225,0.091324784,0.04797906,-0.06365676,-0.12091499,-1.346183,-1.5305319,-0.20700628,21.878475,0.17022383,0.36662287,0.24494655,0.16798307,0.10418298,inf,inf,inf,inf,1,1,1,1,2,0,2,2,1,1,1
75575084,15961736,32.387893700000006,-117.0745242,-0.21957906,-0.6563214,1.0778782,0.0075267805,0.009844232,0.0,-0.04134578,0.0118528,-0.25097933,-0.43963423,0.091324784,0.04797906,-0.06365676,-0.6783674,-0.22744001,0.19364104,-0.20703182,21.878475,0.22478926,0.37883246,0.245394,0.17247005,0.10459904,inf,inf,inf,inf,1,1,1,1,2,0,2,2,1,1,1
75682714,15961736,32.387893700000006,-117.0745242,-0.22290485,-0.6623471,1.0201278,0.0075267805,0.009844232,0.0,-0.036202174,0.013222807,-0.26428166,-0.46037972,0.091324784,0.04797906,-0.06365676,-0.45393312,0.2574095,0.2463389,-0.20700371,21.878475,0.28253973,0.36646894,0.24476962,0.1678519,0.10414023,inf,inf,inf,inf,1,1,1,1,2,0,2,2,1,1,1
75785803,15961736,32.387893700000006,-117.0745242,-0.22810113,-0.67004925,0.9771059,0.0075267805,0.009844232,0.0,-0.048390884,0.013444814,-0.27632946,-0.46399745,0.091324784,0.04797906,-0.06365676,0.44952387,0.34925354,-0.83567345,-0.20718807,21.878475,0.32556158,0.37970483,0.24586338,0.17298917,0.10473822,inf,inf,inf,inf,1,1,1,1,2,0,2,2,1,1,1
75886876,15961736,32.387893700000006,-117.0745242,-0.23335221,-0.6793381,0.9368433,0.0075267805,0.009844232,0.0,-0.053313334,0.011067888,-0.28408536,-0.46121728,0.091324784,0.04797906,-0.06365676,0.7687741,-0.1884742,-0.11726993,-0.20752293,21.878475,0.36582422,0.36774904,0.24539596,0.16835275,0.104306184,inf,inf,inf,inf,1,1,1,1,2,0,2,2,1,1,1
75984731,15961736,32.387893700000006,-117.0745242,-0.23901789,-0.68592316,0.89840555,0.0075267805,0.009844232,0.0,-0.050443083,0.017027352,-0.29945982,-0.46510693,0.091324784,0.04797906,-0.06365676,0.41090262,-0.045166183,-0.16630064,-0.20752867,21.878475,0.40426195,0.37922958,0.24533722,0.17299904,0.10464087,inf,inf,inf,inf,1,1,1,1,2,0,2,2,1,1,1
76091751,15961736,32.387893700000006,-117.0745242,-0.24318375,-0.69268966,0.86488295,0.0075267805,0.009844232,0.0,-0.049240515,0.015153356,-0.30281404,-0.45081967,0.091324784,0.04797906,-0.06365676,-0.32927012,0.30844295,-1.3864884,-0.20732541,21.878475,0.43778455,0.36759564,0.24511991,0.1687113,0.104232766,inf,inf,inf,inf,1,1,1,1,2,0,2,2,1,1,1
76598800,15961736,32.387893700000006,-117.0745242,-0.24820234,-0.6794267,0.7151149,0.0075267805,0.009844232,0.0,0.043181263,0.20402925,-0.4473068,-0.50288624,0.091324784,0.04797906,-0.06365676,0.71451104,2.0766938,1.1150048,-0.2089918,21.878475,0.5875526,0.38145095,0.24626124,0.17436786,0.10487256,inf,inf,inf,inf,1,1,1,1,2,0,2,2,1,1,1
76906803,15961736,32.387893700000006,-117.0745242,-0.21611634,-0.5946314,0.6667843,0.0075267805,0.009844232,0.0,0.10878909,0.33948153,-0.36478287,-0.33271393,0.091324784,0.04797906,-0.06365676,0.6964954,0.14980069,0.8172415,-0.24402942,21.878475,0.6358832,0.36956602,0.24573839,0.16980618,0.10444583,inf,inf,inf,inf,1,1,1,1,2,0,2,2,1,1,1
77007882,15961736,32.387893700000006,-117.0745242,-0.20278142,-0.56068766,0.6764006,0.0075267805,0.009844232,0.0,0.11466382,0.38326052,-0.35509804,-0.2830092,0.091324784,0.04797906,-0.06365676,0.32500884,2.4594033,1.325473,-0.2498181,21.878475,0.6262669,0.38272527,0.24479912,0.1747287,0.10459283,inf,inf,inf,inf,1,1,1,1,2,0,2,2,1,1,1
77110728,15961736,32.387893700000006,-117.0745242,-0.18042156,-0.52705073,0.68514,0.0075267805,0.009844232,0.0,0.117580876,0.40001306,-0.35735333,-0.25047958,0.091324784,0.04797906,-0.06365676,-0.20300725,0.51527584,0.7209325,-0.25426847,21.878475,0.6175275,0.3705301,0.2441722,0.17009754,0.104173,inf,inf,inf,inf,1,1,1,1,2,0,2,2,1,1,1
77212735,15961736,32.387893700000006,-117.0745242,-0.16125281,-0.49214968,0.6928346,0.0075267805,0.009844232,0.0,0.11587154,0.41094196,-0.39772215,-0.26141062,0.091324784,0.04797906,-0.06365676,-0.29539904,1.5467397,-0.5440097,-0.2571273,21.878475,0.6098329,0.38348702,0.24491435,0.17546602,0.10475805,inf,inf,inf,inf,1,1,1,1,2,0,2,2,1,1,1
77310803,15961736,32.387893700000006,-117.0745242,-0.14316168,-0.4593276,0.6908481,0.0075267805,0.009844232,0.0,0.12773767,0.36753094,-0.46388975,-0.30621272,0.091324784,0.04797906,-0.06365676,-0.659185,0.82981974,0.26415148,-0.2608009,21.878475,0.6118194,0.3710126,0.24580278,0.17059794,0.10466871,inf,inf,inf,inf,1,1,1,1,2,0,2,2,1,1,1
77407869,15961736,32.387893700000006,-117.0745242,-0.12623434,-0.4273025,0.6647278,0.0075267805,0.009844232,0.0,0.12612812,0.35399565,-0.5854635,-0.42256367,0.091324784,0.04797906,-0.06365676,0.37747014,0.69537467,-1.2219454,-0.2676631,21.878475,0.6379397,0.3833434,0.24617285,0.17527594,0.10512238,inf,inf,inf,inf,1,1,1,1,2,0,2,2,1,1,1
77509731,15961736,32.387893700000006,-117.0745242,-0.10585957,-0.3906628,0.6261346,0.0075267805,0.009844232,0.0,0.11581407,0.35074815,-0.7754532,-0.60253245,0.091324784,0.04797906,-0.06365676,-0.20893936,0.35265478,-1.7777594,-0.2734301,21.878475,0.6765329,0.37157914,0.24561223,0.17092,0.10473739,inf,inf,inf,inf,1,1,1,1,2,0,2,2,1,1,1
77617829,15961736,32.387893700000006,-117.0745242,-0.08686286,-0.35112625,0.5594801,0.0075267805,0.009844232,0.0,0.1094825,0.33507714,-0.9994509,-0.8168038,0.091324784,0.04797906,-0.06365676,0.40210736,-0.31996265,-2.323822,-0.2781557,21.878475,0.7431874,0.3846038,0.24636374,0.17671423,0.10535593,inf,inf,inf,inf,1,1,1,1,2,0,2,2,1,1,1
77719813,15961736,32.387893700000006,-117.0745242,-0.06969978,-0.30734944,0.48027676,0.0075267805,0.009844232,0.0,0.09808596,0.32062006,-1.1420443,-0.9477261,0.091324784,0.04797906,-0.06365676,-0.55093366,-0.74404144,-1.246937,-0.27947143,21.878475,0.82239074,0.37361243,0.24444218,0.17361738,0.10455913,inf,inf,inf,inf,1,1,1,1,2,0,2,2,1,1,1
77816856,15961736,32.387893700000006,-117.0745242,-0.05588067,-0.26962486,0.39724922,0.0075267805,0.009844232,0.0,0.08821451,0.28595918,-1.2213187,-1.0127186,0.091324784,0.04797906,-0.06365676,-1.2148701,-0.47723806,-1.0386499,-0.27896997,21.878475,0.9054183,0.3853704,0.24617174,0.17887834,0.10541676,inf,inf,inf,inf,1,1,1,1,2,0,2,2,1,1,1
77919810,15961736,32.387893700000006,-117.0745242,-0.032396432,-0.23719774,0.30235192,0.0075267805,0.009844232,0.0,0.093646005,0.2531762,-1.269808,-1.0468404,0.091324784,0.04797906,-0.06365676,-0.03310288,-1.2025989,-0.10815229,-0.27715537,21.878475,1.0003155,0.37400064,0.24411061,0.17528239,0.10460686,inf,inf,inf,inf,1,1,1,1,2,0,2,2,1,1,1
78021800,15961736,32.387893700000006,-117.0745242,-0.0106613785,-0.20718907,0.1884402,0.0075267805,0.009844232,0.0,0.08090077,0.22040579,-1.2786504,-1.0462053,0.091324784,0.04797906,-0.06365676,-0.6942872,0.4574161,-0.25180525,-0.27578726,21.878475,1.1142273,0.3628942,0.24381793,0.17126958,0.104223885,inf,inf,inf,inf,1,1,1,1,2,0,2,2,1,1,1
78123733,15961736,32.387893700000006,-117.0745242,0.007214785,-0.18397303,0.090097316,0.0075267805,0.009844232,0.0,0.072506376,0.17743772,-1.3033086,-1.0657867,0.091324784,0.04797906,-0.06365676,-0.09042611,-0.88449156,-1.5510126,-0.27553236,21.878475,1.2125702,0.37385455,0.24532805,0.1755682,0.10508964,inf,inf,inf,inf,1,1,1,1,2,0,2,2,1,1,1
78226725,15961736,32.387893700000006,-117.0745242,0.02128698,-0.16331968,-0.020152673,0.0075267805,0.009844232,0.0,0.03879594,0.15800828,-1.3274431,-1.0919514,0.091324784,0.04797906,-0.06365676,0.023008259,-1.6657414,-1.1343207,-0.27533302,21.878475,1.3228202,0.38793743,0.24655852,0.18201208,0.105756946,inf,inf,inf,inf,1,1,1,1,2,0,2,2,1,1,1
78323783,15961736,32.387893700000006,-117.0745242,0.0315825,-0.12933025,-0.12176252,0.0075267805,0.009844232,0.0,0.016362118,0.13351204,-1.3598648,-1.126368,0.091324784,0.04797906,-0.06365676,-0.16765848,-2.37686,-0.51124763,-0.27660108,21.878475,1.42443,0.37627444,0.24448305,0.17729443,0.104969196,inf,inf,inf,inf,1,1,1,1,2,0,2,2,1,1,1
78430797,15961736,32.387893700000006,-117.0745242,0.036822107,-0.10130623,-0.24867563,0.0075267805,0.009844232,0.0,-0.022146977,0.11533028,-1.3867306,-1.1610852,0.091324784,0.04797906,-0.06365676,-0.38370702,-0.22107707,-0.79458106,-0.2744313,21.878475,1.5513431,0.36469665,0.2439525,0.17234436,0.1045605,inf,inf,inf,inf,1,1,1,1,2,0,2,2,1,1,1
78528874,15961736,32.387893700000006,-117.0745242,0.03768751,-0.08242927,-0.3743729,0.0075267805,0.009844232,0.0,-0.041584812,0.07916557,-1.4081377,-1.1904646,0.091324784,0.04797906,-0.06365676,0.5572871,-0.29656848,-0.17823233,-0.26951706,21.878475,1.6770403,0.37624526,0.24578393,0.17681858,0.10547458,inf,inf,inf,inf,1,1,1,1,2,0,2,2,1,1,1
78626025,15961736,32.387893700000006,-117.0745242,0.03601246,-0.069089465,-0.49812105,0.0075267805,0.009844232,0.0,-0.051310893,0.033631347,-1.3966662,-1.1844108,0.091324784,0.04797906,-0.06365676,0.097182155,-2.111672,-0.82772875,-0.2845482,21.878475,1.8007885,0.3891166,0.24624681,0.1803477,0.10595198,inf,inf,inf,inf,1,1,1,1,2,0,2,2,1,1,1
78728793,15961736,32.387893700000006,-117.0745242,0.02568508,-0.054278903,-0.6377493,0.0075267805,0.009844232,0.0,-0.081887335,0.000450666,-1.4019247,-1.2063737,0.091324784,0.04797906,-0.06365676,-0.14285135,-0.6640218,0.41959435,-0.28430843,21.878475,1.9404168,0.3770846,0.24604902,0.17280681,0.10570892,inf,inf,inf,inf,1,1,1,1,2,0,2,2,1,1,1
78835728,15961736,32.387893700000006,-117.0745242,0.01352382,-0.045154843,-0.7841075,0.0075267805,0.009844232,0.0,-0.10400368,-0.019469723,-1.3950775,-1.2170833,0.091324784,0.04797906,-0.06365676,-0.41447833,-0.5636141,-0.86231214,-0.28377157,21.878475,2.086775,0.36567616,0.24392743,0.17095795,0.104995266,inf,inf,inf,inf,1,1,1,1,2,0,2,2,1,1,1
78937925,15961736,32.387893700000006,-117.0745242,-0.0015733466,-0.036009762,-0.9110393,0.0075267805,0.009844232,0.0,-0.1305189,-0.027255474,-1.3699123,-1.1970956,0.091324784,0.04797906,-0.06365676,-0.26733354,-1.7597381,-0.030405432,-0.2862038,21.878475,2.2137067,0.3774519,0.2444736,0.18275927,0.10574328,inf,inf,inf,inf,1,1,1,1,2,0,2,2,1,1,1
79039814,15961736,32.387893700000006,-117.0745242,-0.018681016,-0.033449907,-1.0292907,0.0075267805,0.009844232,0.0,-0.15011139,-0.057956778,-1.3100837,-1.1398327,0.091324784,0.04797906,-0.06365676,-0.1969237,-0.47783732,2.2224474,-0.2877606,21.878475,2.3319583,0.36541232,0.24387151,0.18771298,0.10541558,inf,inf,inf,inf,1,1,1,1,2,0,2,2,1,1,1
79137793,15961736,32.387893700000006,-117.0745242,-0.038374837,-0.041170336,-1.142809,0.0075267805,0.009844232,0.0,-0.16779642,-0.07524019,-1.236271,-1.0776975,0.091324784,0.04797906,-0.06365676,-0.17768387,-1.8630884,0.21628527,-0.28295904,21.878475,2.4454765,0.37740383,0.2446879,0.20566912,0.106041424,inf,inf,inf,inf,1,1,1,1,2,0,2,2,1,1,1
79239793,15961736,32.387893700000006,-117.0745242,-0.060324706,-0.048703518,-1.2748647,0.0075267805,0.009844232,0.0,-0.18548855,-0.115336195,-1.1751914,-1.0433758,0.091324784,0.04797906,-0.06365676,-0.019756135,-1.6054287,0.6100399,-0.27530757,21.878475,2.5775323,0.36504233,0.24376325,0.21117966,0.1056591,inf,inf,inf,inf,1,1,1,1,2,0,2,2,1,1,1
79347009,15961736,32.387893700000006,-117.0745242,-0.08395662,-0.04994114,-1.3979298,0.0075267805,0.009844232,0.0,-0.19279908,-0.11732761,-1.0019337,-0.8951724,0.091324784,0.04797906,-0.06365676,-0.49774563,-2.1927621,0.8048103,-0.2659936,21.878475,2.7005973,0.37790623,0.24498205,0.23203713,0.10646543,inf,inf,inf,inf,1,1,1,1,2,0,2,2,1,1,1
79449732,15961736,32.387893700000006,-117.0745242,-0.10607354,-0.055184525,-1.51328,0.0075267805,0.009844232,0.0,-0.18207458,-0.14124528,-0.6939735,-0.62087727,0.091324784,0.04797906,-0.06365676,0.49570125,0.099791944,3.797813,-0.2584216,21.878475,2.8159475,0.365942,0.2443825,0.2364149,0.10606163,inf,inf,inf,inf,1,1,1,1,2,0,2,2,1,1,1
79551835,15961736,32.387893700000006,-117.0745242,-0.12044145,-0.0616009,-1.6108047,0.0075267805,0.009844232,0.0,-0.14375134,-0.14405438,-0.4015264,-0.37364912,0.091324784,0.04797906,-0.06365676,-0.337679,0.5518489,2.8161848,-0.25369346,21.878475,2.9134722,0.38017663,0.2459702,0.25762138,0.106897056,inf,inf,inf,inf,1,1,1,1,2,0,2,2,1,1,1
79649832,15961736,32.387893700000006,-117.0745242,-0.12717086,-0.07019208,-1.6931034,0.0075267805,0.009844232,0.0,-0.07951732,-0.15774667,-0.26489437,-0.28791222,0.091324784,0.04797906,-0.06365676,0.9470761,1.5620372,2.6101794,-0.25140306,21.878475,2.995771,0.36695722,0.24470773,0.25480664,0.10624081,inf,inf,inf,inf,1,1,1,1,2,0,2,2,1,1,1
79755947,15961736,32.387893700000006,-117.0745242,-0.121389374,-0.08025988,-1.7695602,0.0075267805,0.009844232,0.0,0.01103945,-0.13311853,-0.18051568,-0.25192863,0.091324784,0.04797906,-0.06365676,0.72048944,0.48458385,1.6941638,-0.25178325,21.878475,3.0722277,0.38093397,0.24555998,0.27488604,0.106947675,inf,inf,inf,inf,1,1,1,1,2,0,2,2,1,1,1
79858798,15961736,32.387893700000006,-117.0745242,-0.10341551,-0.086828955,-1.842698,0.0075267805,0.009844232,0.0,0.14649612,-0.10654247,-0.14542523,-0.2609842,0.091324784,0.04797906,-0.06365676,1.234487,-0.29022425,0.18252906,-0.25671118,21.878475,3.1453655,0.36862797,0.24500148,0.271284,0.10628666,inf,inf,inf,inf,1,1,1,1,2,0,2,2,1,1,1
79961814,15961736,32.387893700000006,-117.0745242,-0.070742875,-0.08614361,-1.9120821,0.0075267805,0.009844232,0.0,0.29700664,-0.07126367,-0.20770662,-0.35880217,0.091324784,0.04797906,-0.06365676,1.6811723,0.36735502,-0.7747149,-0.2630927,21.878475,3.2147496,0.38488188,0.24639389,0.29394397,0.106767036,inf,inf,inf,inf,1,1,1,1,2,0,2,2,1,1,1
80058833,15961736,32.387893700000006,-117.0745242,-0.02547872,-0.084229566,-1.9963745,0.0075267805,0.009844232,0.0,0.46018198,-0.034813385,-0.39497817,-0.58197826,0.091324784,0.04797906,-0.06365676,2.441701,-0.5215625,-2.7091563,-0.27006966,21.878475,3.299042,0.37002125,0.24476795,0.2843154,0.10576754,inf,inf,inf,inf,1,1,1,1,2,0,2,2,1,1,1
80165811,15961736,32.387893700000006,-117.0745242,0.0392055,-0.08084413,-2.1219625,0.0075267805,0.009844232,0.0,0.6254476,-0.03167303,-0.7203226,-0.94802046,0.091324784,0.04797906,-0.06365676,1.7355592,-0.028193705,-2.5783014,-0.27724266,21.878475,3.4246302,0.38801125,0.2463851,0.3085246,0.10642148,inf,inf,inf,inf,1,1,1,1,2,0,2,2,1,1,1
80263814,15961736,32.387893700000006,-117.0745242,0.11860885,-0.08000412,-2.269962,0.0075267805,0.009844232,0.0,0.7848807,-0.011214274,-1.0162672,-1.2771068,0.091324784,0.04797906,-0.06365676,1.334076,0.13991363,-2.2752097,-0.28506535,21.878475,3.5726295,0.3735234,0.24539524,0.29701543,0.10570106,inf,inf,inf,inf,1,1,1,1,2,0,2,2,1,1,1
80370821,15961736,32.387893700000006,-117.0745242,0.2282929,-0.08049626,-2.4584327,0.0075267805,0.009844232,0.0,0.92357105,-0.010234555,-1.162616,-1.4513538,0.091324784,0.04797906,-0.06365676,0.7621428,-0.57725626,-1.0311755,-0.28954607,21.878475,3.7611003,0.39102003,0.2461332,0.31939465,0.106305815,inf,inf,inf,inf,1,1,1,1,2,0,2,2,1,1,1
80467935,15961736,32.387893700000006,-117.0745242,0.3372213,-0.08242057,-2.6350784,0.0075267805,0.009844232,0.0,1.0714887,-0.012486876,-1.1516879,-1.4642261,0.091324784,0.04797906,-0.06365676,0.8062231,2.260131,1.8710387,-0.29867443,21.878475,3.937746,0.37582505,0.2452182,0.30427733,0.10571921,inf,inf,inf,inf,1,1,1,1,2,0,2,2,1,1,0
80570794,15961736,32.387893700000006,-117.0745242,0.4585479,-0.08637093,-2.8138523,0.0075267805,0.009844232,0.0,1.162425,-0.038810305,-1.0763452,-1.4123043,0.091324784,0.04797906,-0.06365676,0.70524997,-1.3269948,0.35911736,-0.3204402,21.878475,4.11652,0.39462098,0.24610318,0.32438892,0.10638574,inf,inf,inf,inf,1,1,1,1,2,0,2,2,1,1,0
80672714,15961736,32.387893700000006,-117.0745242,0.58749115,-0.0983167,-2.980189,0.0075267805,0.009844232,0.0,1.2620839,-0.06772809,-0.98035604,-1.330917,0.091324784,0.04797906,-0.06365676,1.4847671,-0.16430843,2.7274146,-0.35046872,21.878475,4.2828565,0.3795926,0.24574986,0.3045205,0.105974995,inf,inf,inf,inf,1,1,1,1,2,0,2,2,1,1,0
80774719,15961736,32.387893700000006,-117.0745242,0.7186063,-0.12044606,-3.1056657,0.0075267805,0.009844232,0.0,1.358819,-0.13686448,-0.8167709,-1.1592696,0.091324784,0.04797906,-0.06365676,0.994023,0.32622933,1.1015301,-0.38409913,21.878475,4.4083333,0.39908248,0.24662602,0.3207659,0.10667071,inf,inf,inf,inf,1,1,1,1,2,0,2,2,1,1,0
80877796,15961736,32.387893700000006,-117.0745242,0.862511,-0.15145937,-3.200823,0.0075267805,0.009844232,0.0,1.4469396,-0.21319376,-0.67273647,-0.9967246,0.091324784,0.04797906,-0.06365676,0.41304022,-1.8557727,0.0065861205,-0.424328,21.878475,4.5034904,0.38200343,0.24556941,0.2987333,0.10605775,inf,inf,inf,inf,1,1,1,1,2,0,2,2,1,1,0
80974808,15961736,32.387893700000006,-117.0745242,1.0103749,-0.1929206,-3.2653017,0.0075267805,0.009844232,0.0,1.5544316,-0.30554348,-0.6281535,-0.91546845,0.091324784,0.04797906,-0.06365676,1.2258343,-1.6503681,-0.9975292,-0.466466,21.878475,4.5679693,0.4015315,0.24637178,0.31259358,0.10674081,inf,inf,inf,inf,1,1,1,1,2,0,2,2,1,1,0
81081809,15961736,32.387893700000006,-117.0745242,1.1947882,-0.24853308,-3.316571,0.0075267805,0.009844232,0.0,1.6867512,-0.42522082,-0.59827983,-0.8373852,0.091324784,0.04797906,-0.06365676,0.79280335,-1.849616,-0.82615215,-0.5178305,21.878475,4.6192384,0.38524094,0.24581392,0.2926543,0.10627103,inf,inf,inf,inf,1,1,1,1,2,0,2,2,1,1,0
81179865,15961736,32.387893700000006,-117.0745242,1.3767483,-0.30723953,-3.3655784,0.0075267805,0.009844232,0.0,1.8128263,-0.48971298,-0.6112523,-0.81387746,0.091324784,0.04797906,-0.06365676,1.5792705,-0.891247,-1.1634281,-0.56894934,21.878475,4.668246,0.40396854,0.2462256,0.30565396,0.1068026,inf,inf,inf,inf,1,1,1,1,2,0,2,2,1,1,0
81286753,15961736,32.387893700000006,-117.0745242,1.588461,-0.38280517,-3.4240553,0.0075267805,0.009844232,0.0,1.9440616,-0.5839966,-0.6440254,-0.8108126,0.091324784,0.04797906,-0.06365676,0.6154485,-1.4349804,-0.50542325,-0.62468493,21.878475,4.7267227,0.3888074,0.24456458,0.2880716,0.10610212,inf,inf,inf,inf,1,1,1,1,2,0,2,2,1,1,0
81383811,15961736,32.387893700000006,-117.0745242,1.7851006,-0.4565464,-3.476348,0.0075267805,0.009844232,0.0,2.0390913,-0.6795062,-0.6603219,-0.7975504,0.091324784,0.04797906,-0.06365676,0.9589124,-1.2399964,0.14814678,-0.6755787,21.878475,4.7790155,0.4079438,0.24692197,0.3011352,0.107120305,inf,inf,inf,inf,1,1,1,1,2,0,2,2,1,1,0
81483712,15961736,32.387893700000006,-117.0745242,1.994401,-0.5428823,-3.5276563,0.0075267805,0.009844232,0.0,2.1214967,-0.7702905,-0.6850588,-0.7907957,0.091324784,0.04797906,-0.06365676,0.59884644,-1.1776897,-0.29323423,-0.7275221,21.878475,4.8303237,0.38839266,0.24550171,0.28103533,0.10642778,inf,inf,inf,inf,1,1,1,1,2,0,2,2,1,1,0
81588829,15961736,32.387893700000006,-117.0745242,2.224666,-0.64663965,-3.585584,0.0075267805,0.009844232,0.0,2.182916,-0.8933891,-0.72211313,-0.7974327,0.091324784,0.04797906,-0.06365676,0.19387712,-1.2992566,-0.18703645,-0.78296465,21.878475,4.8882513,0.4092815,0.24680404,0.2936306,0.10716612,inf,inf,inf,inf,1,1,1,1,2,0,2,2,1,1,0
81686853,15961736,32.387893700000006,-117.0745242,2.4263272,-0.7512552,-3.6280465,0.0075267805,0.009844232,0.0,2.2266269,-1.0403824,-0.743292,-0.7845256,0.091324784,0.04797906,-0.06365676,-0.26715228,-2.330602,-0.9895692,-0.83316493,21.878475,4.930714,0.39152744,0.24618371,0.27601156,0.10665915,inf,inf,inf,inf,1,1,1,1,2,0,2,2,1,1,0
81783723,15961736,32.387893700000006,-117.0745242,2.6335392,-0.86617684,-3.6689353,0.0075267805,0.009844232,0.0,2.2541475,-1.159582,-0.78306216,-0.7899194,0.091324784,0.04797906,-0.06365676,1.2267815,-0.6687472,-0.20330107,-0.8782268,21.878475,4.971603,0.40943682,0.2462755,0.28657532,0.107110396,inf,inf,inf,inf,1,1,1,1,2,0,2,2,1,1,0
81886728,15961736,32.387893700000006,-117.0745242,2.8456995,-0.99508625,-3.7037475,0.0075267805,0.009844232,0.0,2.264753,-1.3152577,-0.83002883,-0.79391944,0.091324784,0.04797906,-0.06365676,0.76441026,-0.7066124,-0.8583409,-0.917483,21.878475,5.006415,0.39211208,0.24605338,0.26910064,0.106591955,inf,inf,inf,inf,1,1,1,1,2,0,2,2,1,1,0
81988866,15961736,32.387893700000006,-117.0745242,3.0580113,-1.1358249,-3.7392921,0.0075267805,0.009844232,0.0,2.2664433,-1.4600595,-0.8820995,-0.80353665,0.091324784,0.04797906,-0.06365676,0.4568097,-1.235823,-0.21307673,-0.9492443,21.878475,5.04196,0.4125178,0.24727584,0.2801762,0.1072737,inf,inf,inf,inf,1,1,1,1,2,0,2,2,1,1,0
82095807,15961736,32.387893700000006,-117.0745242,3.3008754,-1.3185606,-3.7823813,0.0075267805,0.009844232,0.0,2.2623036,-1.6299694,-0.9242882,-0.7967333,0.091324784,0.04797906,-0.06365676,0.6106337,-0.46596348,-0.65507007,-0.97646815,21.878475,5.0850487,0.3941471,0.2447812,0.26362255,0.10626709,inf,inf,inf,inf,1,1,1,1,2,0,2,2,1,1,0
82192723,15961736,32.387893700000006,-117.0745242,3.521062,-1.4994868,-3.8283582,0.0075267805,0.009844232,0.0,2.258618,-1.7810882,-0.97974247,-0.81537837,0.091324784,0.04797906,-0.06365676,0.14115775,-0.66292095,-0.39391884,-0.99405175,21.878475,5.131026,0.41162607,0.24673128,0.27353284,0.10718024,inf,inf,inf,inf,1,1,1,1,2,0,2,2,1,1,0
82300803,15961736,32.387893700000006,-117.0745242,3.755265,-1.7012826,-3.878386,0.0075267805,0.009844232,0.0,2.2387974,-1.9297113,-0.9855233,-0.78412694,0.091324784,0.04797906,-0.06365676,0.28634575,-1.7916701,0.9820472,-1.0076343,21.878475,5.1810536,0.3954767,0.24521606,0.25962678,0.10642872,inf,inf,inf,inf,1,1,1,1,2,0,2,2,1,1,0
82406928,15961736,32.387893700000006,-117.0745242,3.971278,-1.9006917,-3.9266572,0.0075267805,0.009844232,0.0,2.2029169,-2.0499558,-0.89469755,-0.6702216,0.091324784,0.04797906,-0.06365676,-0.3170163,-1.0336972,1.6732781,-1.0144538,21.878475,5.229325,0.4141339,0.24585697,0.27022648,0.10708914,inf,inf,inf,inf,1,1,1,1,2,0,2,2,1,1,0
82504723,15961736,32.387893700000006,-117.0745242,4.1755424,-2.1068027,-3.9660068,0.0075267805,0.009844232,0.0,2.1925058,-2.173059,-0.7391293,-0.49838114,0.091324784,0.04797906,-0.06365676,-0.79533905,-2.3192067,0.76513916,-1.0141325,21.878475,5.2686744,0.39501148,0.24491179,0.25502414,0.10644365,inf,inf,inf,inf,1,1,1,1,2,0,2,2,1,1,0
82607815,15961736,32.387893700000006,-117.0745242,4.3821087,-2.3258107,-3.9867096,0.0075267805,0.009844232,0.0,2.192018,-2.2667081,-0.5898342,-0.33388954,0.091324784,0.04797906,-0.06365676,-0.40684682,-0.06240219,1.5300333,-1.0124781,21.878475,5.289377,0.41463533,0.24609268,0.26476726,0.10721968,inf,inf,inf,inf,1,1,1,1,2,0,2,2,1,1,0
82709849,15961736,32.387893700000006,-117.0745242,4.5869403,-2.5618162,-3.986894,0.0075267805,0.009844232,0.0,2.2004018,-2.3758457,-0.4625652,-0.18643051,0.091324784,0.04797906,-0.06365676,0.21581118,-0.38241154,1.756116,-1.0105504,21.878475,5.2895613,0.39579815,0.24545178,0.2498386,0.10683428,inf,inf,inf,inf,1,1,1,1,2,0,2,2,1,1,0
82806970,15961736,32.387893700000006,-117.0745242,4.792472,-2.8041775,-3.9863071,0.0075267805,0.009844232,0.0,2.205437,-2.4830883,-0.36805668,-0.081098974,0.091324784,0.04797906,-0.06365676,-0.09089864,-1.9652677,0.60531384,-1.0106889,21.878475,5.288975,0.4134126,0.24592538,0.2583743,0.10747486,inf,inf,inf,inf,1,1,1,1,2,0,2,2,1,1,0
82913725,15961736,32.387893700000006,-117.0745242,5.0258136,-3.0936396,-3.969986,0.0075267805,0.009844232,0.0,2.211371,-2.5690918,-0.221466,0.08032135,0.091324784,0.04797906,-0.06365676,0.87688106,0.15041155,1.5040882,-1.0138011,21.878475,5.2726536,0.39480382,0.24528962,0.24504928,0.10707378,inf,inf,inf,inf,1,1,1,1,2,0,2,2,1,1,0
83013733,15961736,32.387893700000006,-117.0745242,5.2340684,-3.359044,-3.9395838,0.0075267805,0.009844232,0.0,2.2080116,-2.6349287,-0.109449714,0.20093499,0.091324784,0.04797906,-0.06365676,0.6529434,0.60972446,0.6771908,-1.0172629,21.878475,5.2422514,0.41356283,0.24642554,0.25423017,0.107913375,inf,inf,inf,inf,1,1,1,1,2,0,2,2,1,1,0
83118899,15961736,32.387893700000006,-117.0745242,5.4356585,-3.6198447,-3.9140348,0.0075267805,0.009844232,0.0,2.192604,-2.7041981,-0.13095194,0.175735,0.091324784,0.04797906,-0.06365676,-0.16486111,-1.3900142,-2.2542958,-1.0257878,21.878475,5.2167025,0.3954107,0.24584998,0.24165255,0.107524455,inf,inf,inf,inf,1,1,1,1,2,0,2,2,1,1,0
83216811,15961736,32.387893700000006,-117.0745242,5.625998,-3.8689744,-3.913163,0.0075267805,0.009844232,0.0,2.1889968,-2.7595878,-0.33387527,-0.04071077,0.091324784,0.04797906,-0.06365676,-0.654821,-0.13113445,-3.3124626,-1.0366676,21.878475,5.2158303,0.41250342,0.24634306,0.25013068,0.108175114,inf,inf,inf,inf,1,1,1,1,2,0,2,2,1,1,0
83313811,15961736,32.387893700000006,-117.0745242,5.822609,-4.1419477,-3.9440196,0.0075267805,0.009844232,0.0,2.157062,-2.8120902,-0.54995936,-0.27562952,0.091324784,0.04797906,-0.06365676,-0.51840925,-0.671389,-2.7735999,-1.047539,21.878475,5.246687,0.3930602,0.24683602,0.2377584,0.10799369,inf,inf,inf,inf,1,1,1,1,2,0,2,2,1,1,0
83422712,15961736,32.387893700000006,-117.0745242,6.035365,-4.437456,-4.0073266,0.0075267805,0.009844232,0.0,2.1526587,-2.8225896,-0.6728384,-0.42883974,0.091324784,0.04797906,-0.06365676,0.049071003,0.08861389,0.24902548,-1.0551238,21.878475,5.309994,0.37869063,0.24539968,0.22861177,0.10726473,inf,inf,inf,inf,1,1,1,1,2,0,2,2,1,1,0
83527996,15961736,32.387893700000006,-117.0745242,6.2462435,-4.7184596,-4.0801497,0.0075267805,0.009844232,0.0,2.1762238,-2.8153636,-0.6628579,-0.44811225,0.091324784,0.04797906,-0.06365676,0.9874511,0.76906097,0.6141733,-1.0552918,21.878475,5.3828173,0.39541847,0.24640171,0.23821007,0.10798874,inf,inf,inf,inf,1,1,1,1,2,0,2,2,1,1,0
83630803,15961736,32.387893700000006,-117.0745242,6.478552,-5.0234413,-4.138106,0.0075267805,0.009844232,0.0,2.197083,-2.8603246,-0.6088498,-0.40560925,0.091324784,0.04797906,-0.06365676,0.9891879,-0.17632514,0.84233797,-1.0502794,21.878475,5.4407735,0.3791308,0.2457576,0.22741464,0.10752994,inf,inf,inf,inf,1,1,1,1,2,0,2,2,1,1,0
83732750,15961736,32.387893700000006,-117.0745242,6.673411,-5.28095,-4.163725,0.0075267805,0.009844232,0.0,2.220914,-2.8987331,-0.57779926,-0.36684346,0.091324784,0.04797906,-0.06365676,0.40315935,-1.8137056,0.8495776,-1.0436375,21.878475,5.4663925,0.39611265,0.24695872,0.23597491,0.10829727,inf,inf,inf,inf,1,1,1,1,2,0,2,2,1,1,0
83839807,15961736,32.387893700000006,-117.0745242,6.896834,-5.5827603,-4.1768985,0.0075267805,0.009844232,0.0,2.2400064,-2.9807205,-0.5464303,-0.31544518,0.091324784,0.04797906,-0.06365676,-0.48782834,-1.4349754,-0.64956397,-1.0360215,21.878475,5.479566,0.38017523,0.24647194,0.22531325,0.107838035,inf,inf,inf,inf,1,1,1,1,2,0,2,2,1,1,0
83936969,15961736,32.387893700000006,-117.0745242,7.0956726,-5.863712,-4.1797004,0.0075267805,0.009844232,0.0,2.2613065,-3.0314126,-0.5100639,-0.2570496,0.091324784,0.04797906,-0.06365676,0.1593967,-0.802441,0.40501273,-1.031767,21.878475,5.482368,0.39474928,0.24650587,0.23248145,0.10838267,inf,inf,inf,inf,1,1,1,1,2,0,2,2,1,1,0
84039716,15961736,32.387893700000006,-117.0745242,7.3302197,-6.1934614,-4.1813297,0.0075267805,0.009844232,0.0,2.29533,-3.0762208,-0.45735875,-0.18252651,0.091324784,0.04797906,-0.06365676,0.9526849,1.2187376,1.211514,-1.0281594,21.878475,5.4839973,0.3794054,0.24628395,0.2221388,0.10794334,inf,inf,inf,inf,1,1,1,1,2,0,2,2,1,1,0
84146737,15961736,32.387893700000006,-117.0745242,7.55001,-6.508837,-4.172841,0.0075267805,0.009844232,0.0,2.295687,-3.1386495,-0.4349993,-0.13865532,0.091324784,0.04797906,-0.06365676,0.866982,-0.30568874,-0.3092928,-1.0266404,21.878475,5.4755087,0.39559516,0.24722405,0.23013994,0.10867274,inf,inf,inf,inf,1,1,1,1,2,0,2,2,1,1,0
84239890,15961736,32.387893700000006,-117.0745242,7.7418222,-6.784974,-4.1578417,0.0075267805,0.009844232,0.0,2.309402,-3.1809282,-0.4287209,-0.11286118,0.091324784,0.04797906,-0.06365676,-0.39255786,0.117047936,-0.8431214,-1.0270582,21.878475,5.4605093,0.37871274,0.24616888,0.2192034,0.10802454,inf,inf,inf,inf,1,1,1,1,2,0,2,2,1,1,0
84346732,15961736,32.387893700000006,-117.0745242,7.9921346,-7.1447253,-4.154577,0.0075267805,0.009844232,0.0,2.3183458,-3.2305179,-0.44567043,-0.11471651,0.091324784,0.04797906,-0.06365676,0.34411404,0.8113008,-0.83459705,-1.0279458,21.878475,5.4572444,0.3939323,0.24671966,0.22646803,0.10874019,inf,inf,inf,inf,1,1,1,1,2,0,2,2,1,1,0
84448717,15961736,32.387893700000006,-117.0745242,8.249289,-7.515527,-4.1596885,0.0075267805,0.009844232,0.0,2.3108008,-3.286845,-0.45681244,-0.11749658,0.091324784,0.04797906,-0.06365676,0.8953854,-0.36455178,0.17637986,-1.0290505,21.878475,5.462356,0.37973994,0.24690373,0.2170997,0.108285494,inf,inf,inf,inf,1,1,1,1,2,0,2,2,1,1,0
84551819,15961736,32.387893700000006,-117.0745242,8.491881,-7.865137,-4.17018,0.0075267805,0.009844232,0.0,2.3118787,-3.300052,-0.4456846,-0.10836131,0.091324784,0.04797906,-0.06365676,0.26284721,-0.80842537,0.5795317,-1.0292239,21.878475,5.4728475,0.39587283,0.24608567,0.22501367,0.108512275,inf,inf,inf,inf,1,1,1,1,2,0,2,2,1,1,0
84648865,15961736,32.387893700000006,-117.0745242,8.708652,-8.179094,-4.184385,0.0075267805,0.009844232,0.0,2.3151681,-3.2958536,-0.45530498,-0.1257674,0.091324784,0.04797906,-0.06365676,0.6933931,0.39391178,-0.34358266,-1.0286583,21.878475,5.4870524,0.37817684,0.2464183,0.21455148,0.10821388,inf,inf,inf,inf,1,1,1,1,2,0,2,2,1,1,0
84750802,15961736,32.387893700000006,-117.0745242,8.93585,-8.511519,-4.2050276,0.0075267805,0.009844232,0.0,2.3058,-3.3195977,-0.45807192,-0.1406356,0.091324784,0.04797906,-0.06365676,-0.3256743,0.3478587,0.21583717,-1.0280576,21.878475,5.507695,0.3945934,0.24771287,0.2223147,0.10893811,inf,inf,inf,inf,1,1,1,1,2,0,2,2,1,1,0
84848794,15961736,32.387893700000006,-117.0745242,9.1467,-8.824212,-4.220232,0.0075267805,0.009844232,0.0,2.2924886,-3.3344393,-0.44553348,-0.13433212,0.091324784,0.04797906,-0.06365676,0.29899707,0.8930047,0.77156514,-1.0260017,21.878475,5.5228996,0.3780949,0.24666351,0.21249697,0.1082144,inf,inf,inf,inf,1,1,1,1,2,0,2,2,1,1,0
84950805,15961736,32.387893700000006,-117.0745242,9.35647,-9.142247,-4.2446494,0.0075267805,0.009844232,0.0,2.2859404,-3.3616657,-0.43727255,-0.14316922,0.091324784,0.04797906,-0.06365676,1.0002059,-0.5964179,0.3556621,-1.0229822,21.878475,5.547317,0.39407647,0.24779832,0.21958607,0.108926944,inf,inf,inf,inf,1,1,1,1,2,0,2,2,1,1,0
85058020,15961736,32.387893700000006,-117.0745242,9.581072,-9.4857855,-4.2732067,0.0075267805,0.009844232,0.0,2.2838304,-3.393548,-0.41800666,-0.14041413,0.091324784,0.04797906,-0.06365676,0.5861302,-0.95292217,0.84321034,-1.0184643,21.878475,5.5758743,0.37816316,0.24697247,0.2101213,0.10837015,inf,inf,inf,inf,1,1,1,1,2,0,2,2,1,1,0
85160802,15961736,32.387893700000006,-117.0745242,9.815936,-9.848606,-4.2954674,0.0075267805,0.009844232,0.0,2.2881372,-3.4137745,-0.3100433,-0.044290427,0.091324784,0.04797906,-0.06365676,-0.27274486,-1.4023514,0.81693393,-1.0131116,21.878475,5.598135,0.3943464,0.24637985,0.21713392,0.1085828,inf,inf,inf,inf,1,1,1,1,2,0,2,2,1,1,0
85262735,15961736,32.387893700000006,-117.0745242,10.03531,-10.187369,-4.2996097,0.0075267805,0.009844232,0.0,2.3059275,-3.40648,-0.11848269,0.1352187,0.091324784,0.04797906,-0.06365676,0.7384259,0.45871815,1.0523839,-1.007513,21.878475,5.6022773,0.379494,0.24606521,0.20811892,0.10800855,inf,inf,inf,inf,1,1,1,1,2,0,2,2,1,1,0
85360787,15961736,32.387893700000006,-117.0745242,10.251536,-10.519007,-4.2845564,0.0075267805,0.009844232,0.0,2.331262,-3.4339557,-0.0065213735,0.24059805,0.091324784,0.04797906,-0.06365676,-0.026605004,-0.9932327,-0.12628184,-1.0060072,21.878475,5.587224,0.3928335,0.24775213,0.2136472,0.10894079,inf,inf,inf,inf,1,1,1,1,2,0,2,2,1,1,0
85457977,15961736,32.387893700000006,-117.0745242,10.472024,-10.858045,-4.261031,0.0075267805,0.009844232,0.0,2.3424788,-3.461941,0.055410042,0.29759648,0.091324784,0.04797906,-0.06365676,0.3235247,0.18605432,0.9433318,-1.0066216,21.878475,5.563699,0.3768735,0.24668841,0.20400959,0.10824922,inf,inf,inf,inf,1,1,1,1,2,0,2,2,1,1,0
85559827,15961736,32.387893700000006,-117.0745242,10.687187,-11.192552,-4.231286,0.0075267805,0.009844232,0.0,2.3639786,-3.4862986,0.051457606,0.29026794,0.091324784,0.04797906,-0.06365676,0.9145478,0.36637092,0.7680066,-1.0103256,21.878475,5.5339537,0.39283165,0.24806935,0.21047218,0.10892079,inf,inf,inf,inf,1,1,1,1,2,0,2,2,1,1,0
85667816,15961736,32.387893700000006,-117.0745242,10.933243,-11.565608,-4.201196,0.0075267805,0.009844232,0.0,2.364692,-3.500089,0.047268722,0.28344917,0.091324784,0.04797906,-0.06365676,0.38388637,0.6012332,0.2803384,-1.014792,21.878475,5.503864,0.377047,0.24699706,0.20161651,0.10832029,inf,inf,inf,inf,1,1,1,1,2,0,2,2,1,1,0
85769930,15961736,32.387893700000006,-117.0745242,11.158991,-11.902773,-4.172143,0.0075267805,0.009844232,0.0,2.3613625,-3.4976587,0.019943032,0.2546255,0.091324784,0.04797906,-0.06365676,-0.35449725,-0.31063536,-0.5641248,-1.0195205,21.878475,5.4748106,0.39272377,0.24826738,0.20806105,0.10896953,inf,inf,inf,inf,1,1,1,1,2,0,2,2,1,1,0
85871753,15961736,32.387893700000006,-117.0745242,11.388564,-12.251225,-4.152721,0.0075267805,0.009844232,0.0,2.3457909,-3.488699,-0.027219685,0.20130838,0.091324784,0.04797906,-0.06365676,-0.7947108,0.7429715,-0.12454181,-1.0230303,21.878475,5.4553885,0.3778298,0.24766266,0.1999622,0.10839073,inf,inf,inf,inf,1,1,1,1,2,0,2,2,1,1,0
85974722,15961736,32.387893700000006,-117.0745242,11.620196,-12.606126,-4.1295457,0.0075267805,0.009844232,0.0,2.3360994,-3.4638176,-0.016112711,0.21260604,0.091324784,0.04797906,-0.06365676,0.120920986,0.254881,-0.77566004,-1.0247264,21.878475,5.4322133,0.39347297,0.24705173,0.20646255,0.10853632,inf,inf,inf,inf,1,1,1,1,2,0,2,2,1,1,0
86073734,15961736,32.387893700000006,-117.0745242,11.835567,-12.935094,-4.104008,0.0075267805,0.009844232,0.0,2.3356104,-3.428418,-0.00016327441,0.23112403,0.091324784,0.04797906,-0.06365676,-0.9248039,0.6189448,-0.29383484,-1.0263327,21.878475,5.406676,0.37721834,0.24752797,0.19811252,0.108217925,inf,inf,inf,inf,1,1,1,1,2,0,2,2,1,1,0
86178870,15961736,32.387893700000006,-117.0745242,12.072086,-13.291443,-4.0741887,0.0075267805,0.009844232,0.0,2.345215,-3.39983,0.0019347566,0.23733032,0.091324784,0.04797906,-0.06365676,0.16475342,-0.5741977,1.1910201,-1.0281242,21.878475,5.3768563,0.39273676,0.24691446,0.20454255,0.10836897,inf,inf,inf,inf,1,1,1,1,2,0,2,2,1,1,0
86281723,15961736,32.387893700000006,-117.0745242,12.303561,-13.627177,-4.0500307,0.0075267805,0.009844232,0.0,2.3209264,-3.370084,0.026626743,0.2588759,0.091324784,0.04797906,-0.06365676,0.3541338,1.518272,0.68728805,-1.0278145,21.878475,5.3526983,0.37816355,0.24631298,0.19706602,0.10777923,inf,inf,inf,inf,1,1,1,1,2,0,2,2,1,1,0
86383797,15961736,32.387893700000006,-117.0745242,12.542362,-13.968906,-4.022558,0.0075267805,0.009844232,0.0,2.2936618,-3.362014,0.020295003,0.24996942,0.091324784,0.04797906,-0.06365676,-0.4097915,-0.6856954,-0.83199984,-1.0313932,21.878475,5.325226,0.39350092,0.24748959,0.20352039,0.10837963,inf,inf,inf,inf,1,1,1,1,2,0,2,2,1,1,0
86480803,15961736,32.387893700000006,-117.0745242,12.753159,-14.268913,-3.983928,0.0075267805,0.009844232,0.0,2.2658916,-3.348004,0.03496395,0.27682918,0.091324784,0.04797906,-0.06365676,-0.7907763,-0.72356975,-0.61961776,-1.0378392,21.878475,5.2865953,0.37723643,0.24788965,0.19527017,0.10809597,inf,inf,inf,inf,1,1,1,1,2,0,2,2,1,1,0
86588714,15961736,32.387893700000006,-117.0745242,12.9809065,-14.596172,-3.913857,0.0075267805,0.009844232,0.0,2.2294028,-3.3210316,0.047485303,0.3245324,0.091324784,0.04797906,-0.06365676,0.012074394,0.35850388,-0.7248375,-1.0523142,21.878475,5.2165246,0.39347383,0.24773817,0.20187563,0.1083645,inf,inf,inf,inf,1,1,1,1,2,0,2,2,1,1,0
86690803,15961736,32.387893700000006,-117.0745242,13.182564,-14.902981,-3.8483117,0.0075267805,0.009844232,0.0,2.151543,-3.2926495,-0.02659324,0.28549832,0.091324784,0.04797906,-0.06365676,-1.706275,-0.009880184,0.7986091,-1.0728933,21.878475,5.150979,0.37804225,0.24661924,0.19414453,0.10760542,inf,inf,inf,inf,1,1,1,1,2,0,2,2,1,1,0
86792791,15961736,32.387893700000006,-117.0745242,13.3919735,-15.230904,-3.7940435,0.0075267805,0.009844232,0.0,2.071532,-3.2311482,-0.00857695,0.32520202,0.091324784,0.04797906,-0.06365676,-1.3354529,1.0588126,1.1322135,-1.0946208,21.878475,5.096711,0.3927593,0.24752766,0.20038454,0.10815758,inf,inf,inf,inf,1,1,1,1,2,0,2,2,1,1,0
86890862,15961736,32.387893700000006,-117.0745242,13.575391,-15.530613,-3.755055,0.0075267805,0.009844232,0.0,1.9539008,-3.1772332,-0.024239836,0.31517735,0.091324784,0.04797906,-0.06365676,-1.3691249,-0.1707455,-1.4476047,-1.1201316,21.878475,5.0577226,0.37731257,0.24642812,0.19306768,0.10734423,inf,inf,inf,inf,1,1,1,1,2,0,2,2,1,1,0
86997745,15961736,32.387893700000006,-117.0745242,13.773921,-15.874405,-3.7239301,0.0075267805,0.009844232,0.0,1.7922953,-3.1134331,-0.039673816,0.29296276,0.091324784,0.04797906,-0.06365676,-1.9013004,0.8322026,0.2892584,-1.1533866,21.878475,5.0265975,0.3932493,0.24809216,0.20037521,0.108107485,inf,inf,inf,inf,1,1,1,1,2,0,2,2,1,1,0
87104717,15961736,32.387893700000006,-117.0745242,13.96524,-16.217245,-3.7080083,0.0075267805,0.009844232,0.0,1.6132506,-3.0245154,-0.05474357,0.2618176,0.091324784,0.04797906,-0.06365676,-1.2831116,-0.16001031,-0.00025508212,-1.1885332,21.878475,5.010676,0.37874636,0.24745847,0.19424522,0.1074797,inf,inf,inf,inf,1,1,1,1,2,0,2,2,1,1,0
87207721,15961736,32.387893700000006,-117.0745242,14.13156,-16.540516,-3.7029555,0.0075267805,0.009844232,0.0,1.4300385,-2.933913,-0.06876958,0.2246461,0.091324784,0.04797906,-0.06365676,-1.9281981,0.85206854,-0.27711016,-1.2242616,21.878475,5.005623,0.39359623,0.24845302,0.20174147,0.108040534,inf,inf,inf,inf,1,1,1,1,2,0,2,2,1,1,0
87308870,15961736,32.387893700000006,-117.0745242,14.261237,-16.82605,-3.691949,0.0075267805,0.009844232,0.0,1.2719955,-2.8640935,-0.07345654,0.20683733,0.091324784,0.04797906,-0.06365676,-1.3835268,0.2648831,0.28180984,-1.2662029,21.878475,4.9946165,0.37815925,0.24725457,0.19561994,0.107252866,inf,inf,inf,inf,1,1,1,1,2,0,2,2,1,1,0
87411804,15961736,32.387893700000006,-117.0745242,14.38108,-17.121155,-3.670961,0.0075267805,0.009844232,0.0,1.0941502,-2.8083498,-0.057874024,0.21800289,0.091324784,0.04797906,-0.06365676,-2.2657142,0.49993372,0.5317806,-1.3138864,21.878475,4.9736285,0.3934502,0.24845329,0.20381667,0.107846014,inf,inf,inf,inf,1,1,1,1,2,0,2,2,1,1,0
87514808,15961736,32.387893700000006,-117.0745242,14.476604,-17.40675,-3.6526628,0.0075267805,0.009844232,0.0,0.9328048,-2.7827325,-0.040177707,0.22594465,0.091324784,0.04797906,-0.06365676,-0.40829948,0.5453622,-0.22734015,-1.366653,21.878475,4.9553304,0.37898967,0.24775049,0.19852163,0.10729983,inf,inf,inf,inf,1,1,1,1,2,0,2,2,1,1,0
87621829,15961736,32.387893700000006,-117.0745242,14.561059,-17.703852,-3.6257784,0.0075267805,0.009844232,0.0,0.757003,-2.752535,-0.014446506,0.24848434,0.091324784,0.04797906,-0.06365676,-1.4406774,0.95998144,0.45615175,-1.4242661,21.878475,4.928446,0.36675626,0.24597844,0.19357803,0.10644987,inf,inf,inf,inf,1,1,1,1,2,0,2,2,1,1,0
87717956,15961736,32.387893700000006,-117.0745242,14.6185665,-17.964523,-3.5978534,0.0075267805,0.009844232,0.0,0.6170525,-2.7593045,0.004647498,0.2687973,0.091324784,0.04797906,-0.06365676,-2.418413,0.08465346,-0.031975493,-1.4804416,21.878475,4.900521,0.3800838,0.24638836,0.20076053,0.10688673,inf,inf,inf,inf,1,1,1,1,2,0,2,2,1,1,0
87822005,15961736,32.387893700000006,-117.0745242,14.663674,-18.2432,-3.5632918,0.0075267805,0.009844232,0.0,0.4184039,-2.7825272,-0.025058944,0.24474838,0.091324784,0.04797906,-0.06365676,-1.99773,0.30345264,-0.43228298,-1.5447003,21.878475,4.865959,0.36675516,0.24574772,0.19535542,0.10636174,inf,inf,inf,inf,1,1,1,1,2,0,2,2,1,1,0
87918732,15961736,32.387893700000006,-117.0745242,14.689392,-18.523981,-3.5424612,0.0075267805,0.009844232,0.0,0.26158428,-2.8182743,-0.019304119,0.2460144,0.091324784,0.04797906,-0.06365676,-1.6065527,0.16957998,0.44621465,-1.6062231,21.878475,4.8451285,0.38027993,0.24811043,0.20296699,0.107304886,inf,inf,inf,inf,1,1,1,1,2,0,2,2,1,1,0
88020858,15961736,32.387893700000006,-117.0745242,14.700943,-18.813463,-3.5322354,0.0075267805,0.009844232,0.0,0.08820987,-2.8639693,-0.015907114,0.23224339,0.091324784,0.04797906,-0.06365676,-2.1350708,-1.0523034,-0.19550155,-1.675898,21.878475,4.834903,0.3671061,0.2455161,0.19730426,0.1062903,inf,inf,inf,inf,1,1,1,1,2,0,2,2,1,1,0
88125712,15961736,32.387893700000006,-117.0745242,14.69743,-19.121656,-3.5267117,0.0075267805,0.009844232,0.0,-0.07850037,-2.9109676,-0.011797659,0.2165638,0.091324784,0.04797906,-0.06365676,-0.7883789,0.10649727,0.25304443,-1.7519943,21.878475,4.829379,0.38129878,0.24630827,0.20570971,0.10699275,inf,inf,inf,inf,1,1,1,1,2,0,2,2,1,1,0
88230970,15961736,32.387893700000006,-117.0745242,14.677417,-19.459082,-3.5149314,0.0075267805,0.009844232,0.0,-0.2422132,-2.9110477,-0.009096014,0.2079633,0.091324784,0.04797906,-0.06365676,-1.9061797,-0.12420821,-0.41091335,-1.8314022,21.878475,4.817599,0.36885083,0.24599907,0.20032878,0.10651944,inf,inf,inf,inf,1,1,1,1,2,0,2,2,1,1,0
88328803,15961736,32.387893700000006,-117.0745242,14.646435,-19.73725,-3.5140328,0.0075267805,0.009844232,0.0,-0.39591226,-2.8894007,-0.02815862,0.17021923,0.091324784,0.04797906,-0.06365676,-1.1482561,1.1234318,-0.20879476,-1.9061304,21.878475,4.8167005,0.38222405,0.24623896,0.20864353,0.10702651,inf,inf,inf,inf,1,1,1,1,2,0,2,2,1,1,0
88430717,15961736,32.387893700000006,-117.0745242,14.600214,-20.0344,-3.529516,0.0075267805,0.009844232,0.0,-0.57128114,-2.853327,-0.081836194,0.0854396,0.091324784,0.04797906,-0.06365676,-1.4221827,0.6868777,-0.23208177,-1.9840739,21.878475,4.8321834,0.36947364,0.24578261,0.20341708,0.10658579,inf,inf,inf,inf,1,1,1,1,2,0,2,2,1,1,0
88537717,15961736,32.387893700000006,-117.0745242,14.544348,-20.32475,-3.5718045,0.0075267805,0.009844232,0.0,-0.72940975,-2.7975724,-0.09737962,0.020556975,0.091324784,0.04797906,-0.06365676,-2.6714447,0.37520012,0.0033308093,-2.0635467,21.878475,4.874472,0.38400108,0.2465775,0.21310203,0.10729981,inf,inf,inf,inf,1,1,1,1,2,0,2,2,1,1,0
88639797,15961736,32.387893700000006,-117.0745242,14.474252,-20.603899,-3.6331959,0.0075267805,0.009844232,0.0,-0.89269567,-2.7369735,-0.09858838,-0.04176788,0.091324784,0.04797906,-0.06365676,-1.3384997,0.9978272,0.77836126,-2.132008,21.878475,4.9358635,0.37044305,0.24595308,0.20781806,0.10685154,inf,inf,inf,inf,1,1,1,1,2,0,2,2,1,1,0
88742791,15961736,32.387893700000006,-117.0745242,14.39115,-20.880621,-3.7003164,0.0075267805,0.009844232,0.0,-1.0441668,-2.688326,-0.10730423,-0.10930331,0.091324784,0.04797906,-0.06365676,-0.9248112,0.28957224,0.016130997,-2.2004895,21.878475,5.002984,0.38594228,0.24717756,0.21794912,0.107671015,inf,inf,inf,inf,1,1,1,1,2,0,2,2,1,1,0
88846727,15961736,32.387893700000006,-117.0745242,14.284217,-21.164738,-3.768574,0.0075267805,0.009844232,0.0,-1.2014474,-2.660505,-0.10794033,-0.16103314,0.091324784,0.04797906,-0.06365676,-1.8652284,-0.34150413,0.0833087,-2.2657323,21.878475,5.0712414,0.3727777,0.24679515,0.2125669,0.10726631,inf,inf,inf,inf,1,1,1,1,2,0,2,2,1,1,0
88942959,15961736,32.387893700000006,-117.0745242,14.175674,-21.407957,-3.840442,0.0075267805,0.009844232,0.0,-1.3131099,-2.6463413,-0.078626305,-0.18436934,0.091324784,0.04797906,-0.06365676,-1.2639781,0.7385674,1.0194377,-2.3171165,21.878475,5.1431093,0.38657635,0.24694352,0.22205967,0.10783321,inf,inf,inf,inf,1,1,1,1,2,0,2,2,1,1,0
89044737,15961736,32.387893700000006,-117.0745242,14.039007,-21.681122,-3.9126253,0.0075267805,0.009844232,0.0,-1.4501866,-2.646135,-0.05632651,-0.20931418,0.091324784,0.04797906,-0.06365676,-1.7353451,0.3722966,-0.1055052,-2.3623269,21.878475,5.215293,0.37311798,0.24662295,0.21607609,0.107374415,inf,inf,inf,inf,1,1,1,1,2,0,2,2,1,1,0
89152815,15961736,32.387893700000006,-117.0745242,13.884372,-21.959145,-3.9829893,0.0075267805,0.009844232,0.0,-1.5843526,-2.6463883,-0.040942278,-0.23587303,0.091324784,0.04797906,-0.06365676,-1.3165487,-0.051244248,0.32787645,-2.4043624,21.878475,5.285657,0.3884641,0.24753508,0.22642024,0.1082032,inf,inf,inf,inf,1,1,1,1,2,0,2,2,1,1,0
89254832,15961736,32.387893700000006,-117.0745242,13.718981,-22.229218,-4.056212,0.0075267805,0.009844232,0.0,-1.710723,-2.652288,-0.04283144,-0.27806276,0.091324784,0.04797906,-0.06365676,-1.7016869,0.41756344,0.79385734,-2.436707,21.878475,5.3588796,0.3742014,0.2468173,0.2196193,0.10764878,inf,inf,inf,inf,1,1,1,1,2,0,2,2,1,1,0
89351890,15961736,32.387893700000006,-117.0745242,13.547264,-22.484255,-4.1335406,0.0075267805,0.009844232,0.0,-1.8443886,-2.6504166,-0.06985949,-0.34678343,0.091324784,0.04797906,-0.06365676,-1.8994832,0.18729064,-0.42475343,-2.45254,21.878475,5.4362082,0.3888138,0.24725331,0.22950123,0.108305946,inf,inf,inf,inf,1,1,1,1,2,0,2,2,1,1,0
89458726,15961736,32.387893700000006,-117.0745242,13.3319235,-22.776876,-4.2307463,0.0075267805,0.009844232,0.0,-2.013086,-2.6747987,-0.098030865,-0.42401123,0.091324784,0.04797906,-0.06365676,-1.9547615,-0.21058805,0.9426412,-2.4588065,21.878475,5.533414,0.37459725,0.24660195,0.22290525,0.107784264,inf,inf,inf,inf,1,1,1,1,2,0,2,2,1,1,0
89561737,15961736,32.387893700000006,-117.0745242,13.108244,-23.055742,-4.321081,0.0075267805,0.009844232,0.0,-2.1486547,-2.6809464,-0.08075943,-0.44167683,0.091324784,0.04797906,-0.06365676,-0.67208505,0.4711748,0.15502356,-2.4575992,21.878475,5.623749,0.39094737,0.24787843,0.23408921,0.10870473,inf,inf,inf,inf,1,1,1,1,2,0,2,2,1,1,0
89663915,15961736,32.387893700000006,-117.0745242,12.890414,-23.313408,-4.4101667,0.0075267805,0.009844232,0.0,-2.2662444,-2.7034009,-0.07737721,-0.469725,0.091324784,0.04797906,-0.06365676,-0.5790188,-0.4050059,0.74521315,-2.4507182,21.878475,5.7128344,0.37623444,0.24715547,0.22642355,0.108162716,inf,inf,inf,inf,1,1,1,1,2,0,2,2,1,1,0
89765746,15961736,32.387893700000006,-117.0745242,12.667541,-23.56969,-4.487701,0.0075267805,0.009844232,0.0,-2.3682213,-2.7224457,-0.05898944,-0.47029278,0.091324784,0.04797906,-0.06365676,-1.6231294,-0.7657405,0.48262742,-2.442167,21.878475,5.7903686,0.39222512,0.24624446,0.23705964,0.10859213,inf,inf,inf,inf,1,1,1,1,2,0,2,2,1,1,0
89863798,15961736,32.387893700000006,-117.0745242,12.435273,-23.827425,-4.550408,0.0075267805,0.009844232,0.0,-2.4622748,-2.7443612,-0.04634831,-0.4666457,0.091324784,0.04797906,-0.06365676,-2.0277367,-0.37647188,0.68456435,-2.43613,21.878475,5.8530755,0.37660778,0.24699712,0.22785755,0.108263314,inf,inf,inf,inf,1,1,1,1,2,0,2,2,1,1,0
89967714,15961736,32.387893700000006,-117.0745242,12.152395,-24.131153,-4.6157827,0.0075267805,0.009844232,0.0,-2.5825095,-2.810366,-0.012993054,-0.4428793,0.091324784,0.04797906,-0.06365676,-0.17188276,-0.31382954,0.7555581,-2.4321477,21.878475,5.9184504,0.39322498,0.24634553,0.23777275,0.10863883,inf,inf,inf,inf,1,1,1,1,2,0,2,2,1,1,0
90072958,15961736,32.387893700000006,-117.0745242,11.86958,-24.423925,-4.67987,0.0075267805,0.009844232,0.0,-2.694514,-2.8587425,0.009560977,-0.4311115,0.091324784,0.04797906,-0.06365676,-0.10686578,-0.28244826,0.50213987,-2.430439,21.878475,5.9825377,0.37769544,0.24536566,0.22865796,0.108010195,inf,inf,inf,inf,1,1,1,1,2,0,2,2,1,1,0
90175795,15961736,32.387893700000006,-117.0745242,11.572171,-24.724321,-4.742357,0.0075267805,0.009844232,0.0,-2.8192306,-2.924583,0.018325172,-0.43189317,0.091324784,0.04797906,-0.06365676,-1.5904063,-0.78084296,-0.38235688,-2.4305353,21.878475,6.0450244,0.3946111,0.24664351,0.23874438,0.10887238,inf,inf,inf,inf,1,1,1,1,2,0,2,2,1,1,0
90282726,15961736,32.387893700000006,-117.0745242,11.223971,-25.06563,-4.808879,0.0075267805,0.009844232,0.0,-2.9359338,-2.9757135,0.0023874163,-0.45928964,0.091324784,0.04797906,-0.06365676,-0.463976,-1.1477606,-0.48719168,-2.431864,21.878475,6.1115465,0.3800504,0.24630633,0.22947015,0.108251125,inf,inf,inf,inf,1,1,1,1,2,0,2,2,1,1,0
90384737,15961736,32.387893700000006,-117.0745242,10.917704,-25.358856,-4.869402,0.0075267805,0.009844232,0.0,-3.0205662,-3.036811,0.0155114215,-0.45040625,0.091324784,0.04797906,-0.06365676,-0.037338123,-1.2653543,0.023001118,-2.4331384,21.878475,6.1720695,0.39520806,0.24660942,0.23861866,0.109002516,inf,inf,inf,inf,1,1,1,1,2,0,2,2,1,1,0
90487799,15961736,32.387893700000006,-117.0745242,10.599366,-25.658783,-4.9174223,0.0075267805,0.009844232,0.0,-3.1246583,-3.0938194,0.048137084,-0.41042283,0.091324784,0.04797906,-0.06365676,-1.5817301,-0.8134325,1.768862,-2.4370208,21.878475,6.22009,0.38034558,0.246145,0.22938904,0.10836794,inf,inf,inf,inf,1,1,1,1,2,0,2,2,1,1,0
90589725,15961736,32.387893700000006,-117.0745242,10.255878,-25.981342,-4.960679,0.0075267805,0.009844232,0.0,-3.2284532,-3.1510909,0.039689027,-0.41001892,0.091324784,0.04797906,-0.06365676,-0.2007088,-0.325178,-0.49576554,-2.4524846,21.878475,6.2633467,0.39750838,0.2474197,0.23858404,0.1091386,inf,inf,inf,inf,1,1,1,1,2,0,2,2,1,1,0
90691754,15961736,32.387893700000006,-117.0745242,9.906565,-26.301785,-5.00313,0.0075267805,0.009844232,0.0,-3.327785,-3.1921415,0.039836075,-0.40571013,0.091324784,0.04797906,-0.06365676,-1.0514913,-0.015136599,-0.2517209,-2.4754303,21.878475,6.3057976,0.38045135,0.24594665,0.22770727,0.10822512,inf,inf,inf,inf,1,1,1,1,2,0,2,2,1,1,0
90794795,15961736,32.387893700000006,-117.0745242,9.539114,-26.636501,-5.042306,0.0075267805,0.009844232,0.0,-3.419942,-3.2520247,0.029957809,-0.40507025,0.091324784,0.04797906,-0.06365676,-1.8427968,0.70426583,-0.7236329,-2.4995284,21.878475,6.3449736,0.3976424,0.24723104,0.23683822,0.10903194,inf,inf,inf,inf,1,1,1,1,2,0,2,2,1,1,0
90901732,15961736,32.387893700000006,-117.0745242,9.1388,-26.991482,-5.097645,0.0075267805,0.009844232,0.0,-3.5274475,-3.2929251,-0.011394334,-0.445844,0.091324784,0.04797906,-0.06365676,-1.3424281,-0.29608935,0.96428263,-2.5235925,21.878475,6.4003124,0.3835342,0.24730667,0.22763582,0.108560495,inf,inf,inf,inf,1,1,1,1,2,0,2,2,1,1,0
90998726,15961736,32.387893700000006,-117.0745242,8.756471,-27.329645,-5.1381717,0.0075267805,0.009844232,0.0,-3.631499,-3.3214087,0.0018080568,-0.4238195,0.091324784,0.04797906,-0.06365676,-2.2174175,-0.4842,-0.10547094,-2.544847,21.878475,6.4408393,0.39941597,0.24785255,0.2361202,0.10910288,inf,inf,inf,inf,1,1,1,1,2,0,2,2,1,1,0
91101815,15961736,32.387893700000006,-117.0745242,8.339918,-27.68038,-5.163842,0.0075267805,0.009844232,0.0,-3.7430205,-3.3415153,-0.0147879785,-0.4149819,0.091324784,0.04797906,-0.06365676,-0.8932001,0.56541693,-1.8813931,-2.5671837,21.878475,6.46651,0.3831017,0.24685425,0.22619526,0.10836184,inf,inf,inf,inf,1,1,1,1,2,0,2,2,1,1,0
91204811,15961736,32.387893700000006,-117.0745242,7.9217305,-28.0276,-5.191881,0.0075267805,0.009844232,0.0,-3.8851953,-3.341712,-0.049427763,-0.4299575,0.091324784,0.04797906,-0.06365676,-1.4473071,-0.06476139,-0.27417633,-2.5901928,21.878475,6.494549,0.398634,0.24723311,0.23405598,0.108859286,inf,inf,inf,inf,1,1,1,1,2,0,2,2,1,1,0
91310793,15961736,32.387893700000006,-117.0745242,7.485388,-28.369814,-5.2225533,0.0075267805,0.009844232,0.0,-4.016536,-3.3297334,-0.06360389,-0.42017886,0.091324784,0.04797906,-0.06365676,-1.0980132,0.08119019,0.12684639,-2.6113558,21.878475,6.525221,0.38503066,0.24764374,0.22536883,0.10843948,inf,inf,inf,inf,1,1,1,1,2,0,2,2,1,1,0
91413734,15961736,32.387893700000006,-117.0745242,7.05075,-28.705162,-5.264109,0.0075267805,0.009844232,0.0,-4.133435,-3.3033912,-0.042583723,-0.39239725,0.091324784,0.04797906,-0.06365676,-0.5403766,0.31698543,0.22236937,-2.631232,21.878475,6.5667768,0.40179297,0.24668556,0.2338469,0.10868402,inf,inf,inf,inf,1,1,1,1,2,0,2,2,1,1,0
91510733,15961736,32.387893700000006,-117.0745242,6.6358843,-29.002258,-5.2939005,0.0075267805,0.009844232,0.0,-4.2503715,-3.275453,-0.031131309,-0.36928734,0.091324784,0.04797906,-0.06365676,-0.30883962,-0.332359,0.9682705,-2.6516263,21.878475,6.596568,0.3849319,0.24741018,0.22345035,0.10830592,inf,inf,inf,inf,1,1,1,1,2,0,2,2,1,1,0
91619715,15961736,32.387893700000006,-117.0745242,6.1241403,-29.365753,-5.3254356,0.0075267805,0.009844232,0.0,-4.3996334,-3.241049,-0.051406395,-0.3776717,0.091324784,0.04797906,-0.06365676,-0.3673204,0.81421524,0.4399431,-2.677671,21.878475,6.6281033,0.4016352,0.24836135,0.23146859,0.109011464,inf,inf,inf,inf,1,1,1,1,2,0,2,2,1,1,0
91724997,15961736,32.387893700000006,-117.0745242,5.641394,-29.681396,-5.351462,0.0075267805,0.009844232,0.0,-4.539635,-3.1786284,-0.097143196,-0.40515718,0.091324784,0.04797906,-0.06365676,-0.17174056,-0.5028595,-0.047647126,-2.7032127,21.878475,6.6541295,0.38639763,0.24613087,0.22185083,0.10788631,inf,inf,inf,inf,1,1,1,1,2,0,2,2,1,1,0
91822723,15961736,32.387893700000006,-117.0745242,5.1044106,-30.022036,-5.3698196,0.0075267805,0.009844232,0.0,-4.697466,-3.115633,-0.15272903,-0.43050498,0.091324784,0.04797906,-0.06365676,-1.7497135,0.6533927,-0.08294113,-2.7213857,21.878475,6.6724873,0.3717014,0.24540493,0.21289505,0.107223585,inf,inf,inf,inf,1,1,1,1,2,0,2,2,1,1,0
91929714,15961736,32.387893700000006,-117.0745242,4.5502114,-30.352884,-5.386173,0.0075267805,0.009844232,0.0,-4.8028426,-3.0456889,-0.11058039,-0.35936248,0.091324784,0.04797906,-0.06365676,-1.9565892,1.4818803,1.1286392,-2.7293794,21.878475,6.6888404,0.38867992,0.2470111,0.22109213,0.10799111,inf,inf,inf,inf,1,1,1,1,2,0,2,2,1,1,0
92027797,15961736,32.387893700000006,-117.0745242,4.0254345,-30.657272,-5.392393,0.0075267805,0.009844232,0.0,-4.907278,-2.97902,-0.05681406,-0.2778539,0.091324784,0.04797906,-0.06365676,0.34051496,0.34738,0.9038367,-2.7320313,21.878475,6.6950607,0.37160888,0.24519904,0.21130855,0.10706781,inf,inf,inf,inf,1,1,1,1,2,0,2,2,1,1,0
92124938,15961736,32.387893700000006,-117.0745242,3.4948204,-30.940758,-5.3943615,0.0075267805,0.009844232,0.0,-5.0069137,-2.9143355,-0.03948631,-0.23398235,0.091324784,0.04797906,-0.06365676,-0.9336933,-0.41710192,-0.33360195,-2.7338727,21.878475,6.697029,0.38756263,0.2463063,0.21884178,0.107760355,inf,inf,inf,inf,1,1,1,1,2,0,2,2,1,1,0
92231811,15961736,32.387893700000006,-117.0745242,2.9354408,-31.232834,-5.3929152,0.0075267805,0.009844232,0.0,-5.106281,-2.8345983,0.013518072,-0.15737417,0.091324784,0.04797906,-0.06365676,-0.47939184,0.29698202,-0.011057974,-2.734978,21.878475,6.695583,0.37309828,0.24581835,0.20992234,0.10708344,inf,inf,inf,inf,1,1,1,1,2,0,2,2,1,1,0
92334734,15961736,32.387893700000006,-117.0745242,2.4035497,-31.49656,-5.388453,0.0075267805,0.009844232,0.0,-5.1820183,-2.7901,0.011103759,-0.13887012,0.091324784,0.04797906,-0.06365676,-0.62527835,-0.4180434,-0.98404396,-2.7344766,21.878475,6.6911206,0.38859493,0.24667844,0.2169371,0.107732594,inf,inf,inf,inf,1,1,1,1,2,0,2,2,1,1,0
92436814,15961736,32.387893700000006,-117.0745242,1.8695053,-31.758879,-5.3905487,0.0075267805,0.009844232,0.0,-5.261881,-2.7527816,-0.07772297,-0.21217841,0.091324784,0.04797906,-0.06365676,-0.8590539,0.6016618,-1.7822225,-2.7308133,21.878475,6.6932163,0.37364724,0.2459451,0.20777248,0.10707755,inf,inf,inf,inf,1,1,1,1,2,0,2,2,1,1,0
92533734,15961736,32.387893700000006,-117.0745242,1.3606794,-32.00181,-5.400733,0.0075267805,0.009844232,0.0,-5.316968,-2.737878,-0.09828289,-0.22257869,0.091324784,0.04797906,-0.06365676,0.23655146,0.16644609,0.44776884,-2.72812,21.878475,6.7034006,0.38843772,0.24646546,0.21422596,0.10752935,inf,inf,inf,inf,1,1,1,1,2,0,2,2,1,1,0
92641737,15961736,32.387893700000006,-117.0745242,0.7636219,-32.28671,-5.4180965,0.0075267805,0.009844232,0.0,-5.364269,-2.7121992,-0.09531613,-0.21458359,0.091324784,0.04797906,-0.06365676,1.0947776,-0.9608788,1.806961,-2.7255366,21.878475,6.720764,0.37349582,0.24574365,0.20540866,0.10685651,inf,inf,inf,inf,1,1,1,1,2,0,2,2,1,1,0
92740721,15961736,32.387893700000006,-117.0745242,0.21104674,-32.542183,-5.432763,0.0075267805,0.009844232,0.0,-5.4034586,-2.7023575,-0.051507864,-0.16822499,0.091324784,0.04797906,-0.06365676,0.4817446,-0.8413091,1.8216983,-2.722517,21.878475,6.7354307,0.38816932,0.2462547,0.21168199,0.10726711,inf,inf,inf,inf,1,1,1,1,2,0,2,2,1,1,0
92845955,15961736,32.387893700000006,-117.0745242,-0.3688355,-32.80918,-5.449241,0.0075267805,0.009844232,0.0,-5.4244347,-2.6895447,-0.0055908295,-0.12413327,0.091324784,0.04797906,-0.06365676,-0.743839,-0.4844634,0.71166724,-2.7163627,21.878475,6.751909,0.37489727,0.2463687,0.20354338,0.10680715,inf,inf,inf,inf,1,1,1,1,2,0,2,2,1,1,0
92943810,15961736,32.387893700000006,-117.0745242,-0.9627537,-33.08673,-5.448639,0.0075267805,0.009844232,0.0,-5.4142466,-2.7047648,0.017467935,-0.091377705,0.091324784,0.04797906,-0.06365676,0.46830916,-0.59010774,-0.07305176,-2.7046769,21.878475,6.7513065,0.38933712,0.24678886,0.20951638,0.1071986,inf,inf,inf,inf,1,1,1,1,2,0,2,2,1,1,0
93050714,15961736,32.387893700000006,-117.0745242,-1.5406755,-33.36372,-5.441777,0.0075267805,0.009844232,0.0,-5.4205985,-2.771397,-0.008206504,-0.10018085,0.091324784,0.04797906,-0.06365676,0.6856131,-0.7248755,2.242548,-2.6813173,21.878475,6.744445,0.37445018,0.24607228,0.20083943,0.106533036,inf,inf,inf,inf,1,1,1,1,2,0,2,2,1,1,0
93148845,15961736,32.387893700000006,-117.0745242,-2.077528,-33.62975,-5.447076,0.0075267805,0.009844232,0.0,-5.368677,-2.8403158,0.0010108097,-0.08769753,0.091324784,0.04797906,-0.06365676,-0.6343474,-0.7869746,0.4086347,-2.6530788,21.878475,6.7497435,0.3899828,0.24714036,0.20746614,0.10709738,inf,inf,inf,inf,1,1,1,1,2,0,2,2,1,1,0
93245978,15961736,32.387893700000006,-117.0745242,-2.5929577,-33.89941,-5.4503736,0.0075267805,0.009844232,0.0,-5.3105493,-2.9559283,-0.010493263,-0.094957486,0.091324784,0.04797906,-0.06365676,2.15486,-1.0545061,0.18180846,-2.6199713,21.878475,6.7530413,0.37420225,0.24584058,0.19860038,0.10626972,inf,inf,inf,inf,1,1,1,1,2,0,2,2,1,1,0
93352819,15961736,32.387893700000006,-117.0745242,-3.1593912,-34.217636,-5.4622107,0.0075267805,0.009844232,0.0,-5.218435,-3.1197593,-0.013984308,-0.10165822,0.091324784,0.04797906,-0.06365676,0.29443407,-1.9874865,0.32265827,-2.5821152,21.878475,6.7648783,0.38928983,0.24673045,0.2047391,0.10681721,inf,inf,inf,inf,1,1,1,1,2,0,2,2,1,1,0
93455808,15961736,32.387893700000006,-117.0745242,-3.6902092,-34.538887,-5.4741755,0.0075267805,0.009844232,0.0,-5.1290503,-3.2646885,-0.04100369,-0.13000888,0.091324784,0.04797906,-0.06365676,2.3238204,-1.3621585,-0.74912715,-2.543356,21.878475,6.776843,0.37540457,0.24640107,0.19681308,0.10621508,inf,inf,inf,inf,1,1,1,1,2,0,2,2,1,1,0
93557916,15961736,32.387893700000006,-117.0745242,-4.221431,-34.8849,-5.4946227,0.0075267805,0.009844232,0.0,-4.996897,-3.439334,-0.060287487,-0.15691248,0.091324784,0.04797906,-0.06365676,1.5865021,-1.8123257,-0.4257245,-2.5016313,21.878475,6.7972903,0.3902565,0.24720521,0.2027447,0.106745236,inf,inf,inf,inf,1,1,1,1,2,0,2,2,1,1,0
93654946,15961736,32.387893700000006,-117.0745242,-4.719981,-35.24511,-5.519434,0.0075267805,0.009844232,0.0,-4.8164473,-3.6386173,-0.11613003,-0.21954094,0.091324784,0.04797906,-0.06365676,1.7044061,-1.6369815,-0.01899316,-2.4580584,21.878475,6.8221016,0.3750755,0.2461575,0.19454914,0.105988406,inf,inf,inf,inf,1,1,1,1,2,0,2,2,1,1,0
93757745,15961736,32.387893700000006,-117.0745242,-5.246513,-35.67146,-5.5524635,0.0075267805,0.009844232,0.0,-4.6117916,-3.8869517,-0.12122487,-0.23423748,0.091324784,0.04797906,-0.06365676,2.220345,-1.411716,-0.8660938,-2.4150257,21.878475,6.855131,0.38975155,0.24694833,0.20077941,0.106488414,inf,inf,inf,inf,1,1,1,1,2,0,2,2,1,1,0
93861731,15961736,32.387893700000006,-117.0745242,-5.7417574,-36.122116,-5.5913477,0.0075267805,0.009844232,0.0,-4.4034066,-4.1690907,-0.12833364,-0.2544393,0.091324784,0.04797906,-0.06365676,0.6049339,-3.5884705,-0.41947597,-2.3686483,21.878475,6.8940153,0.37574178,0.2465671,0.19366445,0.105918355,inf,inf,inf,inf,1,1,1,1,2,0,2,2,1,1,0
93966972,15961736,32.387893700000006,-117.0745242,-6.186738,-36.5741,-5.635835,0.0075267805,0.009844232,0.0,-4.188339,-4.3794966,-0.1378726,-0.28017306,0.091324784,0.04797906,-0.06365676,3.0369172,-0.7915714,-0.52431494,-2.319694,21.878475,6.938503,0.3904321,0.24742055,0.20008878,0.106440976,inf,inf,inf,inf,1,1,1,1,2,0,2,2,1,1,0
94064818,15961736,32.387893700000006,-117.0745242,-6.590369,-37.026203,-5.6607413,0.0075267805,0.009844232,0.0,-3.9787533,-4.623278,-0.12438285,-0.26334652,0.091324784,0.04797906,-0.06365676,1.5014477,-3.1365492,0.66236466,-2.2751694,21.878475,6.963409,0.37535825,0.24638137,0.19272526,0.10571505,inf,inf,inf,inf,1,1,1,1,2,0,2,2,1,1,0
94166793,15961736,32.387893700000006,-117.0745242,-7.00029,-37.53531,-5.681264,0.0075267805,0.009844232,0.0,-3.7033057,-4.8342547,-0.08440201,-0.21730343,0.091324784,0.04797906,-0.06365676,3.8965564,-2.2778265,-0.4592925,-2.2240784,21.878475,6.9839315,0.3897654,0.24714836,0.19908327,0.106269814,inf,inf,inf,inf,1,1,1,1,2,0,2,2,1,1,0
94264811,15961736,32.387893700000006,-117.0745242,-7.338325,-38.007454,-5.693923,0.0075267805,0.009844232,0.0,-3.4248414,-5.010078,-0.04334856,-0.16979949,0.091324784,0.04797906,-0.06365676,2.9814026,-1.947035,0.50592655,-2.1702168,21.878475,6.9965906,0.37470326,0.24603157,0.19159868,0.10558508,inf,inf,inf,inf,1,1,1,1,2,0,2,2,1,1,0
94366883,15961736,32.387893700000006,-117.0745242,-7.6695886,-38.530457,-5.704303,0.0075267805,0.009844232,0.0,-3.1031022,-5.211426,-0.0049744025,-0.12573563,0.091324784,0.04797906,-0.06365676,4.046382,-1.2133778,0.65463895,-2.1145082,21.878475,7.0069704,0.38903457,0.24684846,0.19785269,0.106175825,inf,inf,inf,inf,1,1,1,1,2,0,2,2,1,1,0
94473723,15961736,32.387893700000006,-117.0745242,-7.9937854,-39.136124,-5.7095647,0.0075267805,0.009844232,0.0,-2.7215574,-5.4530253,-0.024779826,-0.13723752,0.091324784,0.04797906,-0.06365676,4.4622912,-1.0811533,-0.45144808,-2.0545163,21.878475,7.0122323,0.37491733,0.24614026,0.1913156,0.105695456,inf,inf,inf,inf,1,1,1,1,2,0,2,2,1,1,0
94576732,15961736,32.387893700000006,-117.0745242,-8.256222,-39.727585,-5.734637,0.0075267805,0.009844232,0.0,-2.3243978,-5.660514,-0.095743164,-0.21535508,0.091324784,0.04797906,-0.06365676,2.8919127,-1.5574964,0.066666685,-1.9967508,21.878475,7.0373044,0.3898732,0.24738693,0.19866861,0.10637707,inf,inf,inf,inf,1,1,1,1,2,0,2,2,1,1,0
94678813,15961736,32.387893700000006,-117.0745242,-8.484089,-40.342022,-5.7717624,0.0075267805,0.009844232,0.0,-1.9431021,-5.842361,-0.17275462,-0.30333748,0.091324784,0.04797906,-0.06365676,2.3460805,-0.7538821,-1.1277605,-1.9408172,21.878475,7.07443,0.37574232,0.24483113,0.1925573,0.105481654,inf,inf,inf,inf,1,1,1,1,2,0,2,2,1,1,0
94775903,15961736,32.387893700000006,-117.0745242,-8.66701,-40.958523,-5.825455,0.0075267805,0.009844232,0.0,-1.5536398,-5.9877467,-0.2440672,-0.39220193,0.091324784,0.04797906,-0.06365676,5.2750983,-0.9765006,1.5928463,-1.8893014,21.878475,7.128123,0.3885412,0.24672158,0.19929603,0.10641837,inf,inf,inf,inf,1,1,1,1,2,0,2,2,1,1,0
94878725,15961736,32.387893700000006,-117.0745242,-8.819527,-41.62966,-5.876561,0.0075267805,0.009844232,0.0,-1.1783571,-6.0993733,-0.18542746,-0.3441933,0.091324784,0.04797906,-0.06365676,2.5697389,-0.70653886,0.7813868,-1.8355622,21.878475,7.179229,0.37520748,0.24642687,0.19454259,0.10606453,inf,inf,inf,inf,1,1,1,1,2,0,2,2,1,1,0
94985724,15961736,32.387893700000006,-117.0745242,-8.933045,-42.338272,-5.9211717,0.0075267805,0.009844232,0.0,-0.77335685,-6.187795,-0.1253337,-0.2936887,0.091324784,0.04797906,-0.06365676,2.3339586,0.12723093,0.47543824,-1.7743016,21.878475,7.2238393,0.38979855,0.2456684,0.20203228,0.10636561,inf,inf,inf,inf,1,1,1,1,2,0,2,2,1,1,0
95087887,15961736,32.387893700000006,-117.0745242,-9.006172,-43.026455,-5.9453063,0.0075267805,0.009844232,0.0,-0.40338355,-6.2896333,-0.10938735,-0.2696224,0.091324784,0.04797906,-0.06365676,4.5760612,0.5084119,1.7482097,-1.716036,21.878475,7.247974,0.37537235,0.24474625,0.19520594,0.10596498,inf,inf,inf,inf,1,1,1,1,2,0,2,2,1,1,0
95185826,15961736,32.387893700000006,-117.0745242,-9.038993,-43.63774,-5.962106,0.0075267805,0.009844232,0.0,-0.0859329,-6.349722,-0.13682725,-0.28556627,0.091324784,0.04797906,-0.06365676,2.8867972,0.701617,-0.8089448,-1.6615256,21.878475,7.264774,0.38932076,0.24550937,0.20208028,0.10659247,inf,inf,inf,inf,1,1,1,1,2,0,2,2,1,1,0
95287800,15961736,32.387893700000006,-117.0745242,-9.044617,-44.28623,-5.9735703,0.0075267805,0.009844232,0.0,0.25433028,-6.395307,-0.14472316,-0.274455,0.091324784,0.04797906,-0.06365676,4.3480053,0.4356039,1.0799977,-1.6042536,21.878475,7.276238,0.3755674,0.24486236,0.19594926,0.10623928,inf,inf,inf,inf,1,1,1,1,2,0,2,2,1,1,0
95394726,15961736,32.387893700000006,-117.0745242,-9.009436,-44.992344,-5.9860992,0.0075267805,0.009844232,0.0,0.6352433,-6.4158726,-0.11608498,-0.23085883,0.091324784,0.04797906,-0.06365676,3.187346,0.070057526,-0.07795516,-1.5439858,21.878475,7.288767,0.38961104,0.24572678,0.2029653,0.107030965,inf,inf,inf,inf,1,1,1,1,2,0,2,2,1,1,0
95496940,15961736,32.387893700000006,-117.0745242,-8.939477,-45.679752,-5.991582,0.0075267805,0.009844232,0.0,1.026532,-6.4203725,-0.13345104,-0.22837818,0.091324784,0.04797906,-0.06365676,3.7387433,0.12647228,-0.5061708,-1.4857017,21.878475,7.2942495,0.37583438,0.24508852,0.19617191,0.10667325,inf,inf,inf,inf,1,1,1,1,2,0,2,2,1,1,0
95589735,15961736,32.387893700000006,-117.0745242,-8.83926,-46.317097,-5.988965,0.0075267805,0.009844232,0.0,1.3026531,-6.415726,-0.12461501,-0.19560611,0.091324784,0.04797906,-0.06365676,0.9479123,-0.6748399,1.5656017,-1.433247,21.878475,7.2916327,0.38899675,0.24735513,0.2030701,0.10778569,inf,inf,inf,inf,1,1,1,1,2,0,2,2,1,1,0
95696800,15961736,32.387893700000006,-117.0745242,-8.690388,-47.05941,-5.9791884,0.0075267805,0.009844232,0.0,1.6319689,-6.343913,-0.052762594,-0.09751821,0.091324784,0.04797906,-0.06365676,3.217137,0.13966608,0.25717077,-1.3709372,21.878475,7.281856,0.37625012,0.2453196,0.19751209,0.10704857,inf,inf,inf,inf,1,1,1,1,2,0,2,2,1,1,0
95799811,15961736,32.387893700000006,-117.0745242,-8.532753,-47.691605,-5.9614344,0.0075267805,0.009844232,0.0,1.9025855,-6.272772,-0.024659218,-0.045640018,0.091324784,0.04797906,-0.06365676,2.8409278,1.6089561,-1.0452167,-1.308285,21.878475,7.264102,0.39038864,0.24628814,0.20426238,0.10782345,inf,inf,inf,inf,1,1,1,1,2,0,2,2,1,1,0
95896989,15961736,32.387893700000006,-117.0745242,-8.360993,-48.30177,-5.9322524,0.0075267805,0.009844232,0.0,2.1751363,-6.1610317,-0.016292145,-0.0058213277,0.091324784,0.04797906,-0.06365676,3.2127988,1.8437877,-0.024117311,-1.2521046,21.878475,7.23492,0.3759614,0.24695396,0.19693789,0.10769518,inf,inf,inf,inf,1,1,1,1,2,0,2,2,1,1,0
95998741,15961736,32.387893700000006,-117.0745242,-8.151247,-48.91307,-5.901976,0.0075267805,0.009844232,0.0,2.4798265,-6.0151277,-0.04177352,-0.0033045993,0.091324784,0.04797906,-0.06365676,2.216117,2.4987843,-2.0876322,-1.1923413,21.878475,7.2046437,0.38986525,0.24599451,0.20328426,0.10796717,inf,inf,inf,inf,1,1,1,1,2,0,2,2,1,1,0
96101728,15961736,32.387893700000006,-117.0745242,-7.909002,-49.541073,-5.8773475,0.0075267805,0.009844232,0.0,2.8299158,-5.865027,-0.15696643,-0.08947867,0.091324784,0.04797906,-0.06365676,3.4879217,0.42945775,-1.0053965,-1.13432,21.878475,7.180015,0.37572527,0.24683128,0.19637921,0.107964896,inf,inf,inf,inf,1,1,1,1,2,0,2,2,1,1,0
96208853,15961736,32.387893700000006,-117.0745242,-7.5931106,-50.211113,-5.8608456,0.0075267805,0.009844232,0.0,3.1351426,-5.6140504,-0.1193952,-0.029843025,0.091324784,0.04797906,-0.06365676,1.928565,1.3137578,0.053066865,-1.0737283,21.878475,7.163513,0.39010143,0.2462094,0.20409095,0.108361416,inf,inf,inf,inf,1,1,1,1,2,0,2,2,1,1,0
96305941,15961736,32.387893700000006,-117.0745242,-7.2999578,-50.774113,-5.845641,0.0075267805,0.009844232,0.0,3.3996983,-5.447511,-0.108609214,-0.004733489,0.091324784,0.04797906,-0.06365676,2.0099363,1.2289405,0.7681537,-1.0227234,21.878475,7.1483088,0.37626323,0.24712914,0.19814326,0.108305275,inf,inf,inf,inf,1,1,1,1,2,0,2,2,1,1,0
96408714,15961736,32.387893700000006,-117.0745242,-6.9430513,-51.36209,-5.8290725,0.0075267805,0.009844232,0.0,3.713042,-5.208123,-0.09317467,0.023679834,0.091324784,0.04797906,-0.06365676,3.2746105,2.1004083,-1.6110854,-0.9680264,21.878475,7.13174,0.39068675,0.24650562,0.20565403,0.10870377,inf,inf,inf,inf,1,1,1,1,2,0,2,2,1,1,0
96510723,15961736,32.387893700000006,-117.0745242,-6.566749,-51.91172,-5.7902193,0.0075267805,0.009844232,0.0,3.964914,-4.988237,-0.060403362,0.087324634,0.091324784,0.04797906,-0.06365676,2.0167122,2.7257824,0.095574126,-0.9071707,21.878475,7.092887,0.37656304,0.24548367,0.19903882,0.10820201,inf,inf,inf,inf,1,1,1,1,2,0,2,2,1,1,0
96617917,15961736,32.387893700000006,-117.0745242,-6.1324196,-52.46514,-5.746249,0.0075267805,0.009844232,0.0,4.2025995,-4.7331796,-0.03552575,0.14090368,0.091324784,0.04797906,-0.06365676,2.9352205,3.1890814,-0.96603316,-0.8440474,21.878475,7.048917,0.39111912,0.24683943,0.20682774,0.109130464,inf,inf,inf,inf,1,1,1,1,2,0,2,2,1,1,0
96715815,15961736,32.387893700000006,-117.0745242,-5.7373705,-52.93494,-5.698553,0.0075267805,0.009844232,0.0,4.416844,-4.509269,-0.020251274,0.18552727,0.091324784,0.04797906,-0.06365676,2.09211,1.5120018,2.1397989,-0.7856806,21.878475,7.0012207,0.37709114,0.24580143,0.20055564,0.108502775,inf,inf,inf,inf,1,1,1,1,2,0,2,2,1,1,0
96822774,15961736,32.387893700000006,-117.0745242,-5.268664,-53.431343,-5.6452947,0.0075267805,0.009844232,0.0,4.623819,-4.2632084,0.020316398,0.24960686,0.091324784,0.04797906,-0.06365676,1.3765551,2.8247268,1.2472374,-0.7191367,21.878475,6.9479623,0.36585253,0.24596554,0.19568877,0.10824373,inf,inf,inf,inf,1,1,1,1,2,0,2,2,1,1,0
96919793,15961736,32.387893700000006,-117.0745242,-4.8297405,-53.85236,-5.598152,0.0075267805,0.009844232,0.0,4.800116,-4.0156183,0.045670055,0.29171947,0.091324784,0.04797906,-0.06365676,1.8313913,1.9123278,0.7113635,-0.65681094,21.878475,6.90082,0.37777033,0.24611357,0.20216523,0.1088022,inf,inf,inf,inf,1,1,1,1,2,0,2,2,1,1,0
97017858,15961736,32.387893700000006,-117.0745242,-4.3819666,-54.234833,-5.5550823,0.0075267805,0.009844232,0.0,4.971725,-3.7756844,-0.07766283,0.18455797,0.091324784,0.04797906,-0.06365676,1.5889151,3.2885714,-0.8204123,-0.59514934,21.878475,6.85775,0.36470646,0.24692345,0.19590268,0.10855124,inf,inf,inf,inf,1,1,1,1,2,0,2,2,1,1,0
97119800,15961736,32.387893700000006,-117.0745242,-3.8718972,-54.631577,-5.4993734,0.0075267805,0.009844232,0.0,5.129547,-3.4911685,-0.103757076,0.19025367,0.091324784,0.04797906,-0.06365676,1.8354629,3.0960338,1.4496682,-0.52934,21.878475,6.802041,0.37855548,0.24640754,0.20354448,0.108918235,inf,inf,inf,inf,1,1,1,1,2,0,2,2,1,1,0
97222718,15961736,32.387893700000006,-117.0745242,-3.3077846,-55.012455,-5.440494,0.0075267805,0.009844232,0.0,5.2698274,-3.142541,-0.106453665,0.22147289,0.091324784,0.04797906,-0.06365676,1.5730606,2.253368,0.2711648,-0.46240717,21.878475,6.7431617,0.36645547,0.24614176,0.19834642,0.10837132,inf,inf,inf,inf,1,1,1,1,2,0,2,2,1,1,0
97329832,15961736,32.387893700000006,-117.0745242,-2.7439232,-55.3475,-5.369281,0.0075267805,0.009844232,0.0,5.3860226,-2.7963846,-0.023060879,0.34283748,0.091324784,0.04797906,-0.06365676,0.9163238,2.7648296,0.9469272,-0.39064837,21.878475,6.6719484,0.3789164,0.24654962,0.20552565,0.10904055,inf,inf,inf,inf,1,1,1,1,2,0,2,2,1,1,0
97435884,15961736,32.387893700000006,-117.0745242,-2.1634011,-55.641327,-5.272599,0.0075267805,0.009844232,0.0,5.4824853,-2.4326932,0.04488871,0.46022367,0.091324784,0.04797906,-0.06365676,1.2120626,3.228873,1.4543641,-0.3185862,21.878475,6.575267,0.36658803,0.2460216,0.19990444,0.1084751,inf,inf,inf,inf,1,1,1,1,2,0,2,2,1,1,0
97529725,15961736,32.387893700000006,-117.0745242,-1.6287973,-55.87962,-5.1568823,0.0075267805,0.009844232,0.0,5.549854,-2.1168985,0.054777253,0.5316521,0.091324784,0.04797906,-0.06365676,0.33801112,3.4371402,0.03318284,-0.2554866,21.878475,6.45955,0.37984768,0.24690361,0.20744552,0.1091778,inf,inf,inf,inf,1,1,1,1,2,0,2,2,1,1,0
97631799,15961736,32.387893700000006,-117.0745242,-1.0738871,-56.087708,-5.017942,0.0075267805,0.009844232,0.0,5.561755,-1.7465698,0.05709331,0.60529894,0.091324784,0.04797906,-0.06365676,0.15164228,3.513485,-0.92150694,-0.1885501,21.878475,6.3206096,0.3673624,0.24619997,0.20130746,0.10855346,inf,inf,inf,inf,1,1,1,1,2,0,2,2,1,1,0
97738875,15961736,32.387893700000006,-117.0745242,-0.46063834,-56.273193,-4.874225,0.0075267805,0.009844232,0.0,5.565753,-1.3344047,0.027582064,0.6440159,0.091324784,0.04797906,-0.06365676,0.08952974,2.5193315,-1.3035678,-0.1185179,21.878475,6.1768928,0.38088843,0.24717134,0.20899802,0.109325364,inf,inf,inf,inf,1,1,1,1,2,0,2,2,1,1,0
97837805,15961736,32.387893700000006,-117.0745242,0.05229842,-56.39502,-4.7272973,0.0075267805,0.009844232,0.0,5.503658,-1.0117197,0.066935435,0.7480926,0.091324784,0.04797906,-0.06365676,-0.5630594,2.3518822,0.85538805,-0.051223036,21.878475,6.029965,0.36840698,0.24645926,0.20293981,0.10869196,inf,inf,inf,inf,1,1,1,1,2,0,2,2,1,1,0
97943791,15961736,32.387893700000006,-117.0745242,0.60807705,-56.49527,-4.5778003,0.0075267805,0.009844232,0.0,5.4032445,-0.6443753,0.09453483,0.8326518,0.091324784,0.04797906,-0.06365676,-0.992386,5.027386,0.51176,0.020036766,21.878475,5.880468,0.38260436,0.24774829,0.21087366,0.10952864,inf,inf,inf,inf,1,1,1,1,2,0,2,2,1,1,0
98042731,15961736,32.387893700000006,-117.0745242,1.1527706,-56.556503,-4.419796,0.0075267805,0.009844232,0.0,5.260207,-0.31824625,0.13515276,0.93605894,0.091324784,0.04797906,-0.06365676,-0.6481906,2.7931356,-0.6154159,0.089384146,21.878475,5.7224636,0.36877856,0.24627893,0.2037225,0.10862631,inf,inf,inf,inf,1,1,1,1,2,0,2,2,1,1,0
98147936,15961736,32.387893700000006,-117.0745242,1.7000242,-56.587696,-4.2313933,0.0075267805,0.009844232,0.0,5.084644,0.009132627,0.16742454,1.0425504,0.091324784,0.04797906,-0.06365676,-1.1223238,3.5423222,0.22530378,0.16495892,21.878475,5.534061,0.38302398,0.24756204,0.2111148,0.10942741,inf,inf,inf,inf,1,1,1,1,2,0,2,2,1,1,0
98250795,15961736,32.387893700000006,-117.0745242,2.2164984,-56.583836,-4.0374703,0.0075267805,0.009844232,0.0,4.8876085,0.30167636,0.19807385,1.1393632,0.091324784,0.04797906,-0.06365676,-2.1995354,2.7283266,-0.15426078,0.2352379,21.878475,5.340138,0.37039775,0.24681441,0.20466195,0.10874494,inf,inf,inf,inf,1,1,1,1,2,0,2,2,1,1,0
98352722,15961736,32.387893700000006,-117.0745242,2.720052,-56.551857,-3.853078,0.0075267805,0.009844232,0.0,4.6858416,0.53034127,0.21196038,1.1978954,0.091324784,0.04797906,-0.06365676,-2.1529956,1.3234546,-0.69811255,0.30656713,21.878475,5.1557455,0.38420832,0.24775186,0.21213932,0.109497435,inf,inf,inf,inf,1,1,1,1,2,0,2,2,1,1,0
98450813,15961736,32.387893700000006,-117.0745242,3.192892,-56.499607,-3.6825113,0.0075267805,0.009844232,0.0,4.4750867,0.7114108,0.22829908,1.2498845,0.091324784,0.04797906,-0.06365676,-2.4934907,1.0885117,-0.44467273,0.36905518,21.878475,4.985179,0.37071154,0.24651279,0.20490994,0.10858592,inf,inf,inf,inf,1,1,1,1,2,0,2,2,1,1,0
98557798,15961736,32.387893700000006,-117.0745242,3.643338,-56.437298,-3.4838865,0.0075267805,0.009844232,0.0,4.27213,0.8172947,0.234925,1.2940997,0.091324784,0.04797906,-0.06365676,-2.795068,0.30101675,-0.69674397,0.4216941,21.878475,4.786554,0.3859479,0.24826404,0.2128094,0.10945925,inf,inf,inf,inf,1,1,1,1,2,0,2,2,1,1,0
98664729,15961736,32.387893700000006,-117.0745242,4.0886936,-56.36054,-3.290004,0.0075267805,0.009844232,0.0,4.056399,0.89636326,0.22309512,1.3178277,0.091324784,0.04797906,-0.06365676,-2.6049025,0.8548026,-0.7502314,0.455881,21.878475,4.5926714,0.3730886,0.24745493,0.20620915,0.10861423,inf,inf,inf,inf,1,1,1,1,2,0,2,2,1,1,0
98766726,15961736,32.387893700000006,-117.0745242,4.487835,-56.280067,-3.098452,0.0075267805,0.009844232,0.0,3.8216953,0.9624962,0.2130378,1.3424067,0.091324784,0.04797906,-0.06365676,-2.3856962,0.84973824,-0.18075147,0.4764518,21.878475,4.4011197,0.38779643,0.24688117,0.21347731,0.108705334,inf,inf,inf,inf,1,1,1,1,2,0,2,2,1,1,0
98864750,15961736,32.387893700000006,-117.0745242,4.831383,-56.20044,-2.9395814,0.0075267805,0.009844232,0.0,3.6023684,0.99894965,0.18850505,1.3304697,0.091324784,0.04797906,-0.06365676,-2.8333998,-0.29654992,-0.60570115,0.49078453,21.878475,4.242249,0.3741643,0.24569401,0.20605114,0.10768317,inf,inf,inf,inf,1,1,1,1,2,0,2,2,1,1,0
98973731,15961736,32.387893700000006,-117.0745242,5.205515,-56.101643,-2.7787683,0.0075267805,0.009844232,0.0,3.3470569,1.0251614,0.16827202,1.3045907,0.091324784,0.04797906,-0.06365676,-1.4976478,-0.24698295,-0.52292514,0.50304896,21.878475,4.0814357,0.3888211,0.24690072,0.21343876,0.108380534,inf,inf,inf,inf,1,1,1,1,2,0,2,2,1,1,0
99079028,15961736,32.387893700000006,-117.0745242,5.5636034,-55.999084,-2.624127,0.0075267805,0.009844232,0.0,3.1065009,1.0398046,0.14453857,1.2814679,0.091324784,0.04797906,-0.06365676,-1.6469471,-0.8937757,-0.6285201,0.5121255,21.878475,3.9267945,0.37649706,0.24661122,0.206893,0.1076625,inf,inf,inf,inf,1,1,1,1,2,0,2,2,1,1,0
99176734,15961736,32.387893700000006,-117.0745242,5.8608403,-55.904716,-2.480521,0.0075267805,0.009844232,0.0,2.8822649,1.0603712,0.1630141,1.3032577,0.091324784,0.04797906,-0.06365676,-1.1441594,-0.42621976,-0.55998063,0.51681614,21.878475,3.7831883,0.3894823,0.24675278,0.21376519,0.10805624,inf,inf,inf,inf,1,1,1,1,2,0,2,2,1,1,0
99279810,15961736,32.387893700000006,-117.0745242,6.1347866,-55.817318,-2.319726,0.0075267805,0.009844232,0.0,2.6791265,1.0341933,0.16363946,1.3061541,0.091324784,0.04797906,-0.06365676,-2.106836,0.17297618,-0.97798187,0.51791286,21.878475,3.6223936,0.37662995,0.24623688,0.20695587,0.1073482,inf,inf,inf,inf,1,1,1,1,2,0,2,2,1,1,0
99385797,15961736,32.387893700000006,-117.0745242,6.4053063,-55.723415,-2.1732728,0.0075267805,0.009844232,0.0,2.5137753,1.0235846,0.16171704,1.292662,0.091324784,0.04797906,-0.06365676,-2.1958957,0.5580172,0.69566625,0.5166165,21.878475,3.4759402,0.39093563,0.24709652,0.21404913,0.10797284,inf,inf,inf,inf,1,1,1,1,2,0,2,2,1,1,0
99487799,15961736,32.387893700000006,-117.0745242,6.637519,-55.642567,-2.0502644,0.0075267805,0.009844232,0.0,2.3827932,1.0113586,0.15105067,1.2552658,0.091324784,0.04797906,-0.06365676,-1.0263295,-0.68637234,-0.4758135,0.51522195,21.878475,3.352932,0.3774858,0.24630837,0.20703065,0.1072665,inf,inf,inf,inf,1,1,1,1,2,0,2,2,1,1,0
99585744,15961736,32.387893700000006,-117.0745242,6.8765407,-55.54971,-1.9391621,0.0075267805,0.009844232,0.0,2.2548606,1.0173881,0.13953769,1.2191206,0.091324784,0.04797906,-0.06365676,-1.7357383,-0.9056027,-0.31170073,0.5129718,21.878475,3.2418296,0.39176178,0.24708489,0.21390186,0.10774849,inf,inf,inf,inf,1,1,1,1,2,0,2,2,1,1,0
99686966,15961736,32.387893700000006,-117.0745242,7.084779,-55.47227,-1.8426734,0.0075267805,0.009844232,0.0,2.162365,0.997902,0.12155955,1.1596502,0.091324784,0.04797906,-0.06365676,-0.14007163,-0.8782538,-0.21525128,0.50952715,21.878475,3.145341,0.3783817,0.24639176,0.20673665,0.107080035,inf,inf,inf,inf,1,1,1,1,2,0,2,2,1,1,0
99790863,15961736,32.387893700000006,-117.0745242,7.300954,-55.385098,-1.7619237,0.0075267805,0.009844232,0.0,2.0650551,0.98920953,0.113605045,1.0990542,0.091324784,0.04797906,-0.06365676,-1.9328227,-0.124904044,0.32374114,0.50588596,21.878475,3.0645912,0.39277017,0.24717343,0.21392763,0.10768057,inf,inf,inf,inf,1,1,1,1,2,0,2,2,1,1,0
99887743,15961736,32.387893700000006,-117.0745242,7.5088835,-55.302265,-1.7099572,0.0075267805,0.009844232,0.0,1.9892713,0.9768685,0.12026701,1.041733,0.091324784,0.04797906,-0.06365676,-1.1907749,0.39074028,-0.11945006,0.50189775,21.878475,3.0126247,0.3784717,0.24593832,0.20628172,0.10682768,inf,inf,inf,inf,1,1,1,1,2,0,2,2,1,1,0
99989776,15961736,32.387893700000006,-117.0745242,7.7072344,-55.2189,-1.6664826,0.0075267805,0.009844232,0.0,1.9290423,0.9699048,0.11921992,0.9690534,0.091324784,0.04797906,-0.06365676,-0.87871355,0.9929058,0.7036865,0.49846736,21.878475,2.96915,0.39319506,0.24688222,0.21309444,0.107435115,inf,inf,inf,inf,1,1,1,1,2,0,2,2,1,1,0
100094714,15961736,32.387893700000006,-117.0745242,7.9075594,-55.14732,-1.6505975,0.0075267805,0.009844232,0.0,1.8620416,0.95884645,0.09879223,0.85670865,0.091324784,0.04797906,-0.06365676,-0.9271036,0.96906465,0.83326703,0.49682692,21.878475,2.953265,0.38081995,0.24654013,0.20610608,0.10682892,inf,inf,inf,inf,1,1,1,1,2,0,2,2,1,1,0
100194714,15961736,32.387893700000006,-117.0745242,8.0879,-55.077972,-1.6596404,0.0075267805,0.009844232,0.0,1.8166578,0.93874186,0.07382592,0.73932356,0.091324784,0.04797906,-0.06365676,0.14610489,-0.7110365,-0.31078228,0.4979514,21.878475,2.962308,0.39393926,0.24652693,0.21225958,0.10721483,inf,inf,inf,inf,1,1,1,1,2,0,2,2,1,1,0
100292827,15961736,32.387893700000006,-117.0745242,8.26481,-55.01496,-1.682986,0.0075267805,0.009844232,0.0,1.7814654,0.9186261,0.04902831,0.61468714,0.091324784,0.04797906,-0.06365676,0.10039335,-0.09149023,-0.06864187,0.5010092,21.878475,2.9856534,0.3819688,0.24626705,0.2054478,0.10663982,inf,inf,inf,inf,1,1,1,1,2,0,2,2,1,1,0
100399791,15961736,32.387893700000006,-117.0745242,8.452355,-54.941914,-1.7221651,0.0075267805,0.009844232,0.0,1.7512324,0.9102159,0.03962327,0.503335,0.091324784,0.04797906,-0.06365676,-0.89475787,0.5755196,0.7043593,0.50447303,21.878475,3.0248327,0.39663532,0.24706514,0.21209182,0.1072244,inf,inf,inf,inf,1,1,1,1,2,0,2,2,1,1,0
100496803,15961736,32.387893700000006,-117.0745242,8.624417,-54.878605,-1.7728273,0.0075267805,0.009844232,0.0,1.772634,0.8902417,0.0047094286,0.3738602,0.091324784,0.04797906,-0.06365676,-0.023514394,-1.0308223,-1.1598554,0.50695884,21.878475,3.0754948,0.3828515,0.24591494,0.2042042,0.10643866,inf,inf,inf,inf,1,1,1,1,2,0,2,2,1,1,0
100603714,15961736,32.387893700000006,-117.0745242,8.837756,-54.79399,-1.8302798,0.0075267805,0.009844232,0.0,1.7735454,0.8832853,0.0077304896,0.28626782,0.091324784,0.04797906,-0.06365676,-0.242011,-0.22370222,0.6425014,0.50859827,21.878475,3.1329474,0.39765903,0.24679278,0.21063976,0.107027106,inf,inf,inf,inf,1,1,1,1,2,0,2,2,1,1,0
100706746,15961736,32.387893700000006,-117.0745242,9.037183,-54.71642,-1.9009418,0.0075267805,0.009844232,0.0,1.7669473,0.8860481,0.00793707,0.19293308,0.091324784,0.04797906,-0.06365676,0.56958133,-0.2039116,-0.51378053,0.50884944,21.878475,3.2036095,0.38463446,0.24624178,0.20316112,0.10644865,inf,inf,inf,inf,1,1,1,1,2,0,2,2,1,1,0
100807872,15961736,32.387893700000006,-117.0745242,9.227393,-54.6372,-1.9675535,0.0075267805,0.009844232,0.0,1.7473241,0.8894978,-0.0129284505,0.09518277,0.091324784,0.04797906,-0.06365676,0.1426344,0.536082,0.4027392,0.50623184,21.878475,3.270221,0.3998177,0.24543428,0.2096239,0.106597856,inf,inf,inf,inf,1,1,1,1,2,0,2,2,1,1,0
100910724,15961736,32.387893700000006,-117.0745242,9.409277,-54.557976,-2.052398,0.0075267805,0.009844232,0.0,1.7157797,0.9027731,-0.04385831,-0.019390557,0.091324784,0.04797906,-0.06365676,-0.95217025,-0.1653041,0.7587909,0.50321287,21.878475,3.3550653,0.38624424,0.24483511,0.202402,0.10605154,inf,inf,inf,inf,1,1,1,1,2,0,2,2,1,1,0
101013802,15961736,32.387893700000006,-117.0745242,9.587426,-54.474876,-2.1507404,0.0075267805,0.009844232,0.0,1.7084966,0.91420245,-0.07187074,-0.13158299,0.091324784,0.04797906,-0.06365676,0.39625382,-0.16767655,-1.0498698,0.50357974,21.878475,3.4534078,0.4010248,0.2456328,0.20876792,0.10665234,inf,inf,inf,inf,1,1,1,1,2,0,2,2,1,1,0
101110731,15961736,32.387893700000006,-117.0745242,9.758537,-54.392265,-2.2472036,0.0075267805,0.009844232,0.0,1.6913345,0.931186,-0.07946124,-0.21212618,0.091324784,0.04797906,-0.06365676,1.1542125,-0.8027533,-1.0090032,0.5071533,21.878475,3.549871,0.3866608,0.2449609,0.20085885,0.105994426,inf,inf,inf,inf,1,1,1,1,2,0,2,2,1,1,0
101213762,15961736,32.387893700000006,-117.0745242,9.933697,-54.304512,-2.3525095,0.0075267805,0.009844232,0.0,1.6778494,0.94641924,-0.052260935,-0.25688893,0.091324784,0.04797906,-0.06365676,0.5139678,0.9667454,-0.1677333,0.51265776,21.878475,3.655177,0.40008685,0.24691564,0.20643544,0.10701325,inf,inf,inf,inf,1,1,1,1,2,0,2,2,1,1,0
101320863,15961736,32.387893700000006,-117.0745242,10.12276,-54.211765,-2.476832,0.0075267805,0.009844232,0.0,1.6763096,0.9448418,-0.038760368,-0.3270011,0.091324784,0.04797906,-0.06365676,0.5108955,-0.06522201,1.3514577,0.5208961,21.878475,3.7794995,0.3868013,0.24478455,0.19916552,0.106070556,inf,inf,inf,inf,1,1,1,1,2,0,2,2,1,1,0
101422727,15961736,32.387893700000006,-117.0745242,10.312563,-54.116203,-2.6019325,0.0075267805,0.009844232,0.0,1.6649197,0.9384812,-0.018101266,-0.38361737,0.091324784,0.04797906,-0.06365676,0.86715245,-1.038019,1.0128791,0.5295037,21.878475,3.9046001,0.37415457,0.24452871,0.19211073,0.10560976,inf,inf,inf,inf,1,1,1,1,2,0,2,2,1,1,0
101528815,15961736,32.387893700000006,-117.0745242,10.509004,-54.01908,-2.7232308,0.0075267805,0.009844232,0.0,1.6637995,0.93372786,0.06941306,-0.36511776,0.091324784,0.04797906,-0.06365676,-0.42316628,-0.43850908,0.45665437,0.5371651,21.878475,4.0258985,0.38889554,0.24582429,0.1981592,0.1063011,inf,inf,inf,inf,1,1,1,1,2,0,2,2,1,1,0
101632788,15961736,32.387893700000006,-117.0745242,10.699683,-53.92159,-2.8304937,0.0075267805,0.009844232,0.0,1.6687709,0.92969537,0.22018473,-0.27540028,0.091324784,0.04797906,-0.06365676,0.09038098,-0.046067223,2.4976678,0.5430629,21.878475,4.133161,0.3745437,0.24476616,0.19081675,0.10574902,inf,inf,inf,inf,1,1,1,1,2,0,2,2,1,1,0
101729876,15961736,32.387893700000006,-117.0745242,10.87078,-53.82753,-2.9249754,0.0075267805,0.009844232,0.0,1.6643788,0.9345523,0.31130943,-0.24123886,0.091324784,0.04797906,-0.06365676,0.028859356,-0.5617081,0.5328772,0.5463287,21.878475,4.227643,0.38783854,0.24526899,0.19593014,0.10622505,inf,inf,inf,inf,1,1,1,1,2,0,2,2,1,1,0
101831734,15961736,32.387893700000006,-117.0745242,11.049894,-53.727436,-3.0176702,0.0075267805,0.009844232,0.0,1.668371,0.9522316,0.41622496,-0.1893801,0.091324784,0.04797906,-0.06365676,0.2729747,-0.05385729,1.0502052,0.5472363,21.878475,4.320338,0.37480533,0.24502562,0.18912981,0.10576354,inf,inf,inf,inf,1,1,1,1,2,0,2,2,1,1,0
101934761,15961736,32.387893700000006,-117.0745242,11.220518,-53.627445,-3.0892692,0.0075267805,0.009844232,0.0,1.6750815,0.98030156,0.53437567,-0.10686241,0.091324784,0.04797906,-0.06365676,0.4450338,0.13350621,2.390806,0.5473973,21.878475,4.391937,0.38792068,0.24545224,0.19416521,0.10637106,inf,inf,inf,inf,1,1,1,1,2,0,2,2,1,1,0
102031804,15961736,32.387893700000006,-117.0745242,11.380079,-53.534557,-3.1510656,0.0075267805,0.009844232,0.0,1.7162639,0.98364997,0.5979965,-0.07843473,0.091324784,0.04797906,-0.06365676,0.9793731,-1.1038845,1.0263975,0.5483989,21.878475,4.453733,0.37360185,0.2444852,0.18678685,0.105730414,inf,inf,inf,inf,1,1,1,1,2,0,2,2,1,1,0
102138809,15961736,32.387893700000006,-117.0745242,11.565842,-53.428574,-3.2076244,0.0075267805,0.009844232,0.0,1.7736096,0.99198043,0.650347,-0.058702774,0.091324784,0.04797906,-0.06365676,1.0534008,-0.4693497,1.0121378,0.5487853,21.878475,4.510292,0.3879297,0.24570765,0.19207846,0.10641275,inf,inf,inf,inf,1,1,1,1,2,0,2,2,1,1,0
102241816,15961736,32.387893700000006,-117.0745242,11.768234,-53.31402,-3.2581756,0.0075267805,0.009844232,0.0,1.8288534,1.030709,0.7381264,-0.006718268,0.091324784,0.04797906,-0.06365676,0.29387528,0.7002034,2.7899384,0.5462981,21.878475,4.560843,0.37396908,0.2450507,0.18504517,0.10591627,inf,inf,inf,inf,1,1,1,1,2,0,2,2,1,1,0
102337963,15961736,32.387893700000006,-117.0745242,11.955049,-53.205128,-3.301408,0.0075267805,0.009844232,0.0,1.8889887,1.0729315,0.8148076,0.036333393,0.091324784,0.04797906,-0.06365676,0.024486288,0.76620466,2.9384675,0.54189456,21.878475,4.6040754,0.38634926,0.24514824,0.18985964,0.1063472,inf,inf,inf,inf,1,1,1,1,2,0,2,2,1,1,0
102440796,15961736,32.387893700000006,-117.0745242,12.152227,-53.089626,-3.3532853,0.0075267805,0.009844232,0.0,1.9442183,1.1115282,0.87878495,0.061105363,0.091324784,0.04797906,-0.06365676,0.33778214,1.0267767,2.6134381,0.53637874,21.878475,4.655953,0.37318698,0.24490064,0.18358788,0.105884306,inf,inf,inf,inf,1,1,1,1,2,0,2,2,1,1,0
102543728,15961736,32.387893700000006,-117.0745242,12.366085,-52.962475,-3.3972847,0.0075267805,0.009844232,0.0,2.0159276,1.1517311,0.932578,0.07713088,0.091324784,0.04797906,-0.06365676,1.0470163,0.8269428,1.7234404,0.53202355,21.878475,4.699952,0.3873567,0.24611753,0.18891571,0.10654197,inf,inf,inf,inf,1,1,1,1,2,0,2,2,1,1,0
102640748,15961736,32.387893700000006,-117.0745242,12.567936,-52.84111,-3.4240365,0.0075267805,0.009844232,0.0,2.0522125,1.205682,0.98137575,0.10303638,0.091324784,0.04797906,-0.06365676,0.18077616,0.033220697,1.0699189,0.5302165,21.878475,4.726704,0.37177065,0.24450389,0.18182525,0.10582336,inf,inf,inf,inf,1,1,1,1,2,0,2,2,1,1,0
102743813,15961736,32.387893700000006,-117.0745242,12.768124,-52.716557,-3.462949,0.0075267805,0.009844232,0.0,2.0974567,1.2524004,0.9894762,0.08662958,0.091324784,0.04797906,-0.06365676,0.31041762,0.29109457,-0.54559904,0.52968836,21.878475,4.7656164,0.38556916,0.24558367,0.1870913,0.106478214,inf,inf,inf,inf,1,1,1,1,2,0,2,2,1,1,0
102850890,15961736,32.387893700000006,-117.0745242,12.993672,-52.573086,-3.4879522,0.0075267805,0.009844232,0.0,2.158668,1.3041837,1.0352097,0.11403941,0.091324784,0.04797906,-0.06365676,0.17559959,1.7251978,2.0542974,0.5292737,21.878475,4.79062,0.37228554,0.24531664,0.18096243,0.10602811,inf,inf,inf,inf,1,1,1,1,2,0,2,2,1,1,0
102952818,15961736,32.387893700000006,-117.0745242,13.225326,-52.42079,-3.4908988,0.0075267805,0.009844232,0.0,2.22659,1.329555,1.3146256,0.37865958,0.091324784,0.04797906,-0.06365676,0.0818787,-0.31486583,2.7838182,0.5265383,21.878475,4.793566,0.38576764,0.24619868,0.18611644,0.10666158,inf,inf,inf,inf,1,1,1,1,2,0,2,2,1,1,0
103055796,15961736,32.387893700000006,-117.0745242,13.458094,-52.266273,-3.4673662,0.0075267805,0.009844232,0.0,2.2656274,1.368569,1.5023005,0.55371886,0.091324784,0.04797906,-0.06365676,0.04694209,1.4250557,0.98265606,0.52661675,21.878475,4.770034,0.37175426,0.2455563,0.17968643,0.10619119,inf,inf,inf,inf,1,1,1,1,2,0,2,2,1,1,0
103154729,15961736,32.387893700000006,-117.0745242,13.698994,-52.105503,-3.426218,0.0075267805,0.009844232,0.0,2.3505619,1.3883932,1.2610922,0.31251466,0.091324784,0.04797906,-0.06365676,0.50943005,0.9261763,-3.7630048,0.5236383,21.878475,4.7288857,0.38434097,0.24596418,0.1840068,0.10664147,inf,inf,inf,inf,1,1,1,1,2,0,2,2,1,1,0
103259955,15961736,32.387893700000006,-117.0745242,13.961366,-51.930176,-3.434788,0.0075267805,0.009844232,0.0,2.3994184,1.4514935,0.6820274,-0.25923797,0.091324784,0.04797906,-0.06365676,0.67544514,0.12776662,-4.106854,0.51658255,21.878475,4.7374554,0.37247851,0.24654432,0.1788219,0.106430225,inf,inf,inf,inf,1,1,1,1,2,0,2,2,1,1,0
103357822,15961736,32.387893700000006,-117.0745242,14.185373,-51.781006,-3.481034,0.0075267805,0.009844232,0.0,2.4238644,1.4679004,0.33979413,-0.5866736,0.091324784,0.04797906,-0.06365676,0.26325917,0.0017267454,-1.9999509,0.50942135,21.878475,4.7837014,0.3852344,0.24703623,0.18530174,0.10689289,inf,inf,inf,inf,1,1,1,1,2,0,2,2,1,1,0
103458864,15961736,32.387893700000006,-117.0745242,14.436364,-51.612885,-3.5310874,0.0075267805,0.009844232,0.0,2.4313521,1.5149449,0.15261444,-0.74557143,0.091324784,0.04797906,-0.06365676,-0.3697487,0.78968453,-1.3279656,0.504351,21.878475,4.833755,0.36962295,0.24526857,0.18011563,0.10618579,inf,inf,inf,inf,1,1,1,1,2,0,2,2,1,1,0
103557804,15961736,32.387893700000006,-117.0745242,14.67622,-51.44873,-3.5778804,0.0075267805,0.009844232,0.0,2.440056,1.5242534,-0.06993128,-0.9149082,0.091324784,0.04797906,-0.06365676,0.5909152,-0.55335075,-2.9008193,0.49989462,21.878475,4.880548,0.38355526,0.24648981,0.18647024,0.10687041,inf,inf,inf,inf,1,1,1,1,2,0,2,2,1,1,0
103664800,15961736,32.387893700000006,-117.0745242,14.945104,-51.26793,-3.6368828,0.0075267805,0.009844232,0.0,2.458507,1.506262,-0.43300173,-1.2114295,0.091324784,0.04797906,-0.06365676,1.0159558,0.04161038,-3.5514367,0.49564278,21.878475,4.9395504,0.37035993,0.2462415,0.18146239,0.10643533,inf,inf,inf,inf,1,1,1,1,2,0,2,2,1,1,0
103761833,15961736,32.387893700000006,-117.0745242,15.172897,-51.1172,-3.7136087,0.0075267805,0.009844232,0.0,2.4821997,1.4897118,-0.71290505,-1.4317569,0.091324784,0.04797906,-0.06365676,0.43877316,-0.7187034,-2.7562656,0.4934805,21.878475,5.0162764,0.38252723,0.24632592,0.18723302,0.10686598,inf,inf,inf,inf,1,1,1,1,2,0,2,2,1,1,0
103867879,15961736,32.387893700000006,-117.0745242,15.440382,-50.94398,-3.8279421,0.0075267805,0.009844232,0.0,2.505729,1.4958179,-0.9279106,-1.5888656,0.091324784,0.04797906,-0.06365676,1.0767791,-1.3030813,-2.1679413,0.49023852,21.878475,5.1306095,0.3686521,0.24567592,0.1823232,0.10639312,inf,inf,inf,inf,1,1,1,1,2,0,2,2,1,1,0
103971949,15961736,32.387893700000006,-117.0745242,15.697582,-50.77773,-3.9497538,0.0075267805,0.009844232,0.0,2.553379,1.5003144,-1.0686446,-1.6672686,0.091324784,0.04797906,-0.06365676,1.7945492,1.1769782,-1.1229763,0.48519447,21.878475,5.2524214,0.38403395,0.24582462,0.18954156,0.10680303,inf,inf,inf,inf,1,1,1,1,2,0,2,2,1,1,0
104073800,15961736,32.387893700000006,-117.0745242,15.966335,-50.609547,-4.0750394,0.0075267805,0.009844232,0.0,2.6140783,1.5388296,-1.1628506,-1.7055707,0.091324784,0.04797906,-0.06365676,1.0639344,0.060569335,-0.6635484,0.480619,21.878475,5.377707,0.3691236,0.24631903,0.18370375,0.106606044,inf,inf,inf,inf,1,1,1,1,2,0,2,2,1,1,0
104175723,15961736,32.387893700000006,-117.0745242,16.237417,-50.441284,-4.2065625,0.0075267805,0.009844232,0.0,2.6950915,1.5814073,-1.2558116,-1.7452763,0.091324784,0.04797906,-0.06365676,0.37940165,1.4623481,0.065134674,0.47745982,21.878475,5.50923,0.38260722,0.24715981,0.18964314,0.10723291,inf,inf,inf,inf,1,1,1,1,2,0,2,2,1,1,0
104275719,15961736,32.387893700000006,-117.0745242,16.506054,-50.269592,-4.35449,0.0075267805,0.009844232,0.0,2.7899907,1.6395749,-1.3677499,-1.824661,0.091324784,0.04797906,-0.06365676,1.5542514,0.95845646,-0.6188651,0.4758764,21.878475,5.6571574,0.36822042,0.24612986,0.18349643,0.10659442,inf,inf,inf,inf,1,1,1,1,2,0,2,2,1,1,0
104380935,15961736,32.387893700000006,-117.0745242,16.809582,-50.075897,-4.5306993,0.0075267805,0.009844232,0.0,2.90699,1.6906155,-1.488898,-1.9131279,0.091324784,0.04797906,-0.06365676,0.69474614,0.037868954,-1.0723056,0.4748569,21.878475,5.833367,0.38369533,0.24626528,0.19020547,0.10698274,inf,inf,inf,inf,1,1,1,1,2,0,2,2,1,1,0
104478725,15961736,32.387893700000006,-117.0745242,17.092648,-49.899532,-4.700572,0.0075267805,0.009844232,0.0,3.0338075,1.7373058,-1.5659529,-1.9681294,0.091324784,0.04797906,-0.06365676,1.2065848,0.6082214,-0.49177644,0.47529092,21.878475,6.0032396,0.36878234,0.24683739,0.18420213,0.10678494,inf,inf,inf,inf,1,1,1,1,2,0,2,2,1,1,0
104585744,15961736,32.387893700000006,-117.0745242,17.424486,-49.699448,-4.8985605,0.0075267805,0.009844232,0.0,3.1798446,1.8082052,-1.6309019,-2.0137336,0.091324784,0.04797906,-0.06365676,0.9276062,0.74581546,0.026404306,0.47659692,21.878475,6.201228,0.38220224,0.24758781,0.19019325,0.10739402,inf,inf,inf,inf,1,1,1,1,2,0,2,2,1,1,0
104683834,15961736,32.387893700000006,-117.0745242,17.766201,-49.497128,-5.0974975,0.0075267805,0.009844232,0.0,3.3394828,1.8717207,-1.6996897,-2.066561,0.091324784,0.04797906,-0.06365676,1.7486005,0.191783,-0.7608231,0.47737753,21.878475,6.400165,0.3678754,0.24659677,0.18397318,0.10676689,inf,inf,inf,inf,1,1,1,1,2,0,2,2,1,1,0
104789735,15961736,32.387893700000006,-117.0745242,18.129704,-49.28475,-5.31295,0.0075267805,0.009844232,0.0,3.523329,1.964124,-1.7610308,-2.115817,0.091324784,0.04797906,-0.06365676,1.4833326,1.2866623,0.33533746,0.47871467,21.878475,6.6156178,0.3827651,0.24635556,0.19040963,0.10712282,inf,inf,inf,inf,1,1,1,1,2,0,2,2,1,1,0
104887815,15961736,32.387893700000006,-117.0745242,18.478664,-49.07847,-5.52064,0.0075267805,0.009844232,0.0,3.7113922,2.0550601,-1.8426924,-2.193323,0.091324784,0.04797906,-0.06365676,2.2852693,0.7524234,-1.015146,0.48009986,21.878475,6.8233075,0.36833397,0.24530976,0.18458001,0.10649089,inf,inf,inf,inf,1,1,1,1,2,0,2,2,1,1,0
104996718,15961736,32.387893700000006,-117.0745242,18.915857,-48.82436,-5.7777357,0.0075267805,0.009844232,0.0,3.9362912,2.1732748,-1.9343258,-2.2863915,0.091324784,0.04797906,-0.06365676,1.8490143,1.0832667,-0.67553985,0.48152462,21.878475,7.0804033,0.3820677,0.24620335,0.19042124,0.10712422,inf,inf,inf,inf,1,1,1,1,2,0,2,2,1,1,0
105101976,15961736,32.387893700000006,-117.0745242,19.334368,-48.577072,-6.024462,0.0075267805,0.009844232,0.0,4.164204,2.2947743,-2.0132744,-2.3652031,0.091324784,0.04797906,-0.06365676,2.002717,0.7936442,-0.00410644,0.48313668,21.878475,7.32713,0.36964265,0.24638686,0.18515325,0.10687226,inf,inf,inf,inf,1,1,1,1,2,0,2,2,1,1,0
105199723,15961736,32.387893700000006,-117.0745242,19.766699,-48.32777,-6.2756624,0.0075267805,0.009844232,0.0,4.3963423,2.4176636,-2.0807507,-2.4396996,0.091324784,0.04797906,-0.06365676,1.9634391,1.9591167,-0.49954328,0.48452476,21.878475,7.57833,0.3825807,0.24676402,0.19115892,0.10732305,inf,inf,inf,inf,1,1,1,1,2,0,2,2,1,1,0
105301812,15961736,32.387893700000006,-117.0745242,20.256569,-48.047134,-6.549299,0.0075267805,0.009844232,0.0,4.6658797,2.5522933,-2.1593373,-2.522349,0.091324784,0.04797906,-0.06365676,2.7400415,1.0083383,-0.07054557,0.48576316,21.878475,7.8519664,0.3689332,0.24611726,0.18564005,0.10686039,inf,inf,inf,inf,1,1,1,1,2,0,2,2,1,1,0
105413859,15961736,32.387893700000006,-117.0745242,20.800877,-47.74019,-6.8571076,0.0075267805,0.009844232,0.0,4.961206,2.6965005,-2.2321732,-2.6107712,0.091324784,0.04797906,-0.06365676,2.985142,0.41648415,-1.824686,0.48701397,21.878475,8.159775,0.3841232,0.24782252,0.19234104,0.1077145,inf,inf,inf,inf,1,1,1,1,2,0,2,2,1,1,0
105511831,15961736,32.387893700000006,-117.0745242,21.272846,-47.47235,-7.124744,0.0075267805,0.009844232,0.0,5.213719,2.8213007,-2.306517,-2.7021694,0.091324784,0.04797906,-0.06365676,2.8466606,0.9529497,-0.73772055,0.4873143,21.878475,8.427411,0.3697157,0.24676648,0.1864974,0.10709037,inf,inf,inf,inf,1,1,1,1,2,0,2,2,1,1,0
105608800,15961736,32.387893700000006,-117.0745242,21.768293,-47.195396,-7.3939805,0.0075267805,0.009844232,0.0,5.474263,2.9671416,-2.358669,-2.7663643,0.091324784,0.04797906,-0.06365676,2.9731634,0.9529472,-0.038956746,0.4887671,21.878475,8.696648,0.38220993,0.24681614,0.19213644,0.10752372,inf,inf,inf,inf,1,1,1,1,2,0,2,2,1,1,0
105711739,15961736,32.387893700000006,-117.0745242,22.343977,-46.88151,-7.679846,0.0075267805,0.009844232,0.0,5.768642,3.1187465,-2.3723128,-2.7793252,0.091324784,0.04797906,-0.06365676,2.9119384,1.8633616,0.7563421,0.49024308,21.878475,8.982513,0.3691514,0.24657767,0.18665075,0.10712167,inf,inf,inf,inf,1,1,1,1,2,0,2,2,1,1,0
105813851,15961736,32.387893700000006,-117.0745242,22.96399,-46.54617,-7.9692917,0.0075267805,0.009844232,0.0,6.0771604,3.283447,-2.3674033,-2.7737238,0.091324784,0.04797906,-0.06365676,3.339508,1.3350068,0.2746153,0.48984805,21.878475,9.271959,0.3829252,0.24737796,0.19249366,0.10775236,inf,inf,inf,inf,1,1,1,1,2,0,2,2,1,1,0
105920723,15961736,32.387893700000006,-117.0745242,23.63438,-46.181824,-8.256976,0.0075267805,0.009844232,0.0,6.41385,3.443821,-2.3628917,-2.761575,0.091324784,0.04797906,-0.06365676,3.5231593,1.1215563,-0.5790495,0.48809788,21.878475,9.559644,0.3698491,0.24711661,0.18705824,0.10732969,inf,inf,inf,inf,1,1,1,1,2,0,2,2,1,1,0
106022717,15961736,32.387893700000006,-117.0745242,24.32193,-45.81008,-8.54661,0.0075267805,0.009844232,0.0,6.7242985,3.6156976,-2.3683977,-2.7682364,0.091324784,0.04797906,-0.06365676,2.5362954,1.1580591,0.6919573,0.48544243,21.878475,9.8492775,0.35691503,0.24653302,0.18161522,0.1068437,inf,inf,inf,inf,1,1,1,1,2,0,2,2,1,1,0
106125810,15961736,32.387893700000006,-117.0745242,25.041351,-45.41806,-8.841064,0.0075267805,0.009844232,0.0,7.039919,3.7811053,-2.3305166,-2.7361572,0.091324784,0.04797906,-0.06365676,2.4521701,1.3549342,0.81639504,0.48426238,21.878475,10.143732,0.37032914,0.24749176,0.18783991,0.107511766,inf,inf,inf,inf,1,1,1,1,2,0,2,2,1,1,0
106222780,15961736,32.387893700000006,-117.0745242,25.72192,-45.049854,-9.094353,0.0075267805,0.009844232,0.0,7.264967,3.9089873,-2.1687257,-2.5730493,0.091324784,0.04797906,-0.06365676,1.7470884,2.2507715,3.3744411,0.4878505,21.878475,10.39702,0.3827052,0.24738736,0.19305198,0.10789622,inf,inf,inf,inf,1,1,1,1,2,0,2,2,1,1,0
106329802,15961736,32.387893700000006,-117.0745242,26.53406,-44.611626,-9.3575325,0.0075267805,0.009844232,0.0,7.5329247,4.0305386,-1.888142,-2.2904606,0.091324784,0.04797906,-0.06365676,3.337359,-0.1056562,3.367009,0.4963647,21.878475,10.6602,0.36959472,0.24711406,0.18728976,0.10745761,inf,inf,inf,inf,1,1,1,1,2,0,2,2,1,1,0
106432797,15961736,32.387893700000006,-117.0745242,27.281094,-44.21089,-9.553716,0.0075267805,0.009844232,0.0,7.7039,4.120013,-1.5237702,-1.9120384,0.091324784,0.04797906,-0.06365676,2.8803072,0.0044058035,3.6022892,0.5054063,21.878475,10.856383,0.35664445,0.24644154,0.18083443,0.10691974,inf,inf,inf,inf,1,1,1,1,2,0,2,2,1,1,0
106534808,15961736,32.387893700000006,-117.0745242,28.058563,-43.795414,-9.712358,0.0075267805,0.009844232,0.0,7.8675056,4.206562,-1.1429324,-1.5168202,0.091324784,0.04797906,-0.06365676,1.8396758,0.86653525,4.3689795,0.5118535,21.878475,11.015026,0.37042335,0.2476655,0.18553953,0.10756378,inf,inf,inf,inf,1,1,1,1,2,0,2,2,1,1,0
106640991,15961736,32.387893700000006,-117.0745242,28.946836,-43.319748,-9.845003,0.0075267805,0.009844232,0.0,8.040978,4.312852,-0.75023603,-1.1129264,0.091324784,0.04797906,-0.06365676,1.6121725,0.96914583,3.6554382,0.5094321,21.878475,11.147671,0.35709387,0.24666694,0.17825344,0.106934085,inf,inf,inf,inf,1,1,1,1,2,0,2,2,1,1,0
106734717,15961736,32.387893700000006,-117.0745242,29.75489,-42.884468,-9.929168,0.0075267805,0.009844232,0.0,8.189833,4.38647,-0.5490648,-0.89903194,0.091324784,0.04797906,-0.06365676,2.0684881,1.2641553,0.30046394,0.4901762,21.878475,11.231835,0.36945608,0.24704187,0.18222652,0.107337244,inf,inf,inf,inf,1,1,1,1,2,0,2,2,1,1,0
106841738,15961736,32.387893700000006,-117.0745242,30.731146,-42.36086,-10.021061,0.0075267805,0.009844232,0.0,8.377763,4.4428754,-0.51483244,-0.85852736,0.091324784,0.04797906,-0.06365676,1.9342998,-1.1062555,-0.9166361,0.4363596,21.878475,11.323729,0.35690507,0.24675073,0.1756818,0.106802,inf,inf,inf,inf,1,1,1,1,2,0,2,2,1,1,0
106943832,15961736,32.387893700000006,-117.0745242,31.598986,-41.897,-10.109114,0.0075267805,0.009844232,0.0,8.505889,4.4509034,-0.5079731,-0.8498601,0.091324784,0.04797906,-0.06365676,0.97868186,0.3374859,1.2559625,0.36265865,21.878475,11.411781,0.37064287,0.24615692,0.18105829,0.10699355,inf,inf,inf,inf,1,1,1,1,2,0,2,2,1,1,0
107048715,15961736,32.387893700000006,-117.0745242,32.4832,-41.437668,-10.213901,0.0075267805,0.009844232,0.0,8.598595,4.349662,-0.5505161,-0.90290576,0.091324784,0.04797906,-0.06365676,0.26321882,-1.0893812,-0.32633254,0.2714642,21.878475,11.516568,0.3567069,0.24695437,0.17507476,0.10688452,inf,inf,inf,inf,1,1,1,1,2,0,2,2,1,1,0
107143809,15961736,32.387893700000006,-117.0745242,33.309402,-41.02435,-10.3170395,0.0075267805,0.009844232,0.0,8.697456,4.205853,-0.5785469,-0.9435267,0.091324784,0.04797906,-0.06365676,-0.267216,-0.38594005,-0.14319874,0.18261796,21.878475,11.619707,0.36910033,0.24740265,0.1801624,0.107321925,inf,inf,inf,inf,1,1,1,1,2,0,2,2,1,1,0
107246805,15961736,32.387893700000006,-117.0745242,34.1851,-40.6113,-10.4334755,0.0075267805,0.009844232,0.0,8.775305,3.976951,-0.61171204,-0.9917163,0.091324784,0.04797906,-0.06365676,0.73338735,-2.3460662,-0.8033459,0.08031521,21.878475,11.736143,0.35679713,0.24526647,0.17460781,0.10630561,inf,inf,inf,inf,1,1,1,1,2,0,2,2,1,1,0
107353791,15961736,32.387893700000006,-117.0745242,35.138615,-40.1991,-10.561881,0.0075267805,0.009844232,0.0,8.87573,3.6675994,-0.63386524,-1.0304133,0.091324784,0.04797906,-0.06365676,1.1191195,-3.248523,0.27236557,-0.02860134,21.878475,11.864549,0.3704097,0.24645227,0.17985108,0.10686378,inf,inf,inf,inf,1,1,1,1,2,0,2,2,1,1,0
107460794,15961736,32.387893700000006,-117.0745242,36.08991,-39.828255,-10.703797,0.0075267805,0.009844232,0.0,8.974926,3.3372154,-0.611011,-1.0367653,0.091324784,0.04797906,-0.06365676,1.4939247,-3.5647206,0.7265013,-0.13964611,21.878475,12.006465,0.35738987,0.24574126,0.17386831,0.10622942,inf,inf,inf,inf,1,1,1,1,2,0,2,2,1,1,0
107562726,15961736,32.387893700000006,-117.0745242,37.022503,-39.509533,-10.844718,0.0075267805,0.009844232,0.0,9.067701,2.9757555,-0.5721256,-1.0243236,0.091324784,0.04797906,-0.06365676,0.55411017,-1.8311956,0.7293637,-0.24851844,21.878475,12.147386,0.37163556,0.24732587,0.17956282,0.10692536,inf,inf,inf,inf,1,1,1,1,2,0,2,2,1,1,0
107660756,15961736,32.387893700000006,-117.0745242,37.967827,-39.230217,-10.967534,0.0075267805,0.009844232,0.0,9.139598,2.587705,-0.53490514,-1.0022157,0.091324784,0.04797906,-0.06365676,0.44880044,-3.0808134,-0.06828108,-0.34719443,21.878475,12.270202,0.35822964,0.24630146,0.17371562,0.1061546,inf,inf,inf,inf,1,1,1,1,2,0,2,2,1,1,0
107761889,15961736,32.387893700000006,-117.0745242,38.880966,-39.003376,-11.083115,0.0075267805,0.009844232,0.0,9.189654,2.197633,-0.5138908,-0.99492073,0.091324784,0.04797906,-0.06365676,1.673505,-4.6202116,0.24166332,-0.44323015,21.878475,12.385782,0.36936492,0.24781168,0.17790066,0.10690633,inf,inf,inf,inf,1,1,1,1,2,0,2,2,1,1,0
107869807,15961736,32.387893700000006,-117.0745242,39.896,-38.803295,-11.223866,0.0075267805,0.009844232,0.0,9.208336,1.7287065,-0.4837641,-0.98856366,0.091324784,0.04797906,-0.06365676,-0.19527307,-2.9199102,-0.33332345,-0.53981394,21.878475,12.526534,0.35864758,0.24642062,0.17337488,0.10610068,inf,inf,inf,inf,1,1,1,1,2,0,2,2,1,1,0
107967813,15961736,32.387893700000006,-117.0745242,40.74679,-38.677944,-11.33806,0.0075267805,0.009844232,0.0,9.195693,1.3201203,-0.46908244,-0.98831075,0.091324784,0.04797906,-0.06365676,0.7089599,-4.80568,0.6424832,-0.6236206,21.878475,12.640728,0.37088734,0.24674965,0.17840333,0.106497735,inf,inf,inf,inf,1,1,1,1,2,0,2,2,1,1,0
108069767,15961736,32.387893700000006,-117.0745242,41.63071,-38.584354,-11.460642,0.0075267805,0.009844232,0.0,9.152821,0.8979502,-0.47079262,-1.0051218,0.091324784,0.04797906,-0.06365676,0.027877651,-3.0319781,-0.13269569,-0.7060815,21.878475,12.7633095,0.3582786,0.24603635,0.1730041,0.105989374,inf,inf,inf,inf,1,1,1,1,2,0,2,2,1,1,0
108170935,15961736,32.387893700000006,-117.0745242,42.513275,-38.528645,-11.581363,0.0075267805,0.009844232,0.0,9.102307,0.46928763,-0.442878,-0.9965701,0.091324784,0.04797906,-0.06365676,0.03384503,-3.0797637,0.67115617,-0.78786093,21.878475,12.88403,0.36993754,0.24605067,0.17766789,0.10641224,inf,inf,inf,inf,1,1,1,1,2,0,2,2,1,1,0
108274926,15961736,32.387893700000006,-117.0745242,43.4325,-38.51392,-11.72589,0.0075267805,0.009844232,0.0,9.052149,0.01901934,-0.40979797,-0.99536127,0.091324784,0.04797906,-0.06365676,-0.39098963,-4.178188,2.1847327,-0.86621785,21.878475,13.028558,0.36418447,0.24651317,0.17424329,0.106222875,inf,inf,inf,inf,1,1,1,1,2,0,2,2,1,1,0
108376814,15961736,32.387893700000006,-117.0745242,44.400814,-38.54851,-11.850728,0.0075267805,0.009844232,0.0,8.970042,-0.481922,-0.36507648,-0.9696286,0.091324784,0.04797906,-0.06365676,-0.63843983,-3.8998144,1.6992369,-0.9311445,21.878475,13.153396,0.37642625,0.2468211,0.1793772,0.10674689,inf,inf,inf,inf,1,1,1,1,2,0,2,2,1,1,0
108482897,15961736,32.387893700000006,-117.0745242,45.313457,-38.635864,-11.976969,0.0075267805,0.009844232,0.0,8.861789,-0.9664404,-0.32042333,-0.94652677,0.091324784,0.04797906,-0.06365676,-0.073458865,-3.9282496,1.7283268,-0.99265426,21.878475,13.279636,0.36800605,0.24579555,0.17532471,0.10636207,inf,inf,inf,inf,1,1,1,1,2,0,2,2,1,1,0
108586863,15961736,32.387893700000006,-117.0745242,46.23873,-38.77674,-12.086619,0.0075267805,0.009844232,0.0,8.756405,-1.458564,-0.27738515,-0.9079001,0.091324784,0.04797906,-0.06365676,-0.2686472,-4.1863976,0.64713997,-1.0462568,21.878475,13.389287,0.38157082,0.24691336,0.18120968,0.10720268,inf,inf,inf,inf,1,1,1,1,2,0,2,2,1,1,0
108684058,15961736,32.387893700000006,-117.0745242,47.08711,-38.95272,-12.16156,0.0075267805,0.009844232,0.0,8.613433,-1.9190618,-0.2533169,-0.85948247,0.091324784,0.04797906,-0.06365676,-1.7266872,-4.0355763,-0.768806,-1.0917689,21.878475,13.464228,0.3729468,0.24620298,0.1775746,0.10691826,inf,inf,inf,inf,1,1,1,1,2,0,2,2,1,1,0
108790800,15961736,32.387893700000006,-117.0745242,47.982803,-39.189995,-12.215493,0.0075267805,0.009844232,0.0,8.433384,-2.4254096,-0.2649607,-0.82782346,0.091324784,0.04797906,-0.06365676,-2.4531336,-4.7005577,-0.64653784,-1.1294732,21.878475,13.518161,0.3872828,0.24587578,0.18417823,0.10747481,inf,inf,inf,inf,1,1,1,1,2,0,2,2,1,1,0
108888721,15961736,32.387893700000006,-117.0745242,48.817314,-39.463062,-12.257481,0.0075267805,0.009844232,0.0,8.259467,-2.9108849,-0.2702781,-0.7890573,0.091324784,0.04797906,-0.06365676,-1.2583228,-3.5108576,0.2510986,-1.1511675,21.878475,13.560148,0.37614864,0.2459351,0.17940447,0.1074218,inf,inf,inf,inf,1,1,1,1,2,0,2,2,1,1,0
108995925,15961736,32.387893700000006,-117.0745242,49.666508,-39.79939,-12.296206,0.0075267805,0.009844232,0.0,8.038177,-3.4284902,-0.32219324,-0.7860033,0.091324784,0.04797906,-0.06365676,-1.6321461,-5.9550633,-0.34636223,-1.1689312,21.878475,13.598874,0.39115053,0.24600726,0.18658616,0.10825704,inf,inf,inf,inf,1,1,1,1,2,0,2,2,1,1,0
109097750,15961736,32.387893700000006,-117.0745242,50.454865,-40.167652,-12.319956,0.0075267805,0.009844232,0.0,7.8091435,-3.9086745,-0.34776205,-0.7525494,0.091324784,0.04797906,-0.06365676,-2.4141464,-4.9310355,0.46912903,-1.1801308,21.878475,13.622623,0.38020918,0.2464843,0.1826397,0.108348206,inf,inf,inf,inf,1,1,1,1,2,0,2,2,1,1,0
109200723,15961736,32.387893700000006,-117.0745242,51.2415,-40.59713,-12.335138,0.0075267805,0.009844232,0.0,7.5419984,-4.408779,-0.38749564,-0.72731066,0.091324784,0.04797906,-0.06365676,-2.7744317,-5.1793904,-0.7791852,-1.1897393,21.878475,13.637806,0.3934017,0.24727303,0.18919079,0.109428994,inf,inf,inf,inf,1,1,1,1,2,0,2,2,1,1,0
109299718,15961736,32.387893700000006,-117.0745242,51.93375,-41.031197,-12.345843,0.0075267805,0.009844232,0.0,7.266955,-4.8534665,-0.46039262,-0.73758435,0.091324784,0.04797906,-0.06365676,-1.699415,-4.144305,-0.6677477,-1.1958191,21.878475,13.648511,0.3826533,0.24629796,0.18495938,0.10910437,inf,inf,inf,inf,1,1,1,1,2,0,2,2,1,1,0
109404930,15961736,32.387893700000006,-117.0745242,52.663223,-41.55872,-12.345127,0.0075267805,0.009844232,0.0,6.9332705,-5.3781843,-0.5117854,-0.7093081,0.091324784,0.04797906,-0.06365676,-3.1190789,-6.03999,0.5205764,-1.1988275,21.878475,13.647795,0.39726707,0.24609233,0.19256502,0.11005749,inf,inf,inf,inf,1,1,1,1,2,0,2,2,1,1,0
